time,accel_x,accel_y,accel_z,gyro_x,gyro_y,gyro_z,temp_c
2025-09-22T21:18:15.623401,-8.29,-0.66,-5.63,0.04,0.03,-0.0,29.67
2025-09-22T21:18:15.729974,-8.28,-0.68,-5.62,0.05,0.02,-0.01,29.66
2025-09-22T21:18:15.850564,-8.27,-0.62,-5.66,0.05,0.03,0.0,29.66
2025-09-22T21:18:15.954006,-8.27,-0.68,-5.65,0.04,0.03,0.0,29.67
2025-09-22T21:18:16.052656,-8.28,-0.64,-5.63,0.05,0.03,0.0,29.68
2025-09-22T21:18:16.183857,-8.29,-0.65,-5.62,0.04,0.03,-0.0,29.67
2025-09-22T21:18:16.306739,-8.26,-0.65,-5.62,0.05,0.03,-0.0,29.65
2025-09-22T21:18:16.349021,-8.28,-0.62,-5.62,0.05,0.03,-0.0,29.67
2025-09-22T21:18:16.445785,-8.28,-0.66,-5.63,0.04,0.03,0.0,29.67
2025-09-22T21:18:16.549462,-8.26,-0.65,-5.63,0.05,0.03,0.0,29.65
2025-09-22T21:18:16.655238,-8.27,-0.64,-5.64,0.04,0.03,-0.0,29.67
2025-09-22T21:18:16.756351,-8.27,-0.62,-5.64,0.04,0.04,0.0,29.66
2025-09-22T21:18:16.858808,-8.3,-0.71,-5.56,0.04,0.03,0.0,29.69
2025-09-22T21:18:16.962311,-8.26,-0.67,-5.65,0.1,-0.03,-0.05,29.67
2025-09-22T21:18:17.064878,-8.23,-0.63,-5.68,0.02,0.06,0.02,29.67
2025-09-22T21:18:17.168831,-8.27,-0.72,-5.63,0.04,0.03,-0.0,29.66
2025-09-22T21:18:17.270806,-8.34,-0.54,-5.61,0.06,0.02,-0.01,29.66
2025-09-22T21:18:17.373582,-8.28,-0.66,-5.66,0.04,0.03,0.0,29.66
2025-09-22T21:18:17.477313,-8.26,-0.66,-5.67,0.06,0.02,-0.01,29.67
2025-09-22T21:18:17.578892,-8.28,-0.59,-5.64,0.04,0.04,0.0,29.66
2025-09-22T21:18:17.682808,-8.25,-0.69,-5.64,0.04,0.03,-0.0,29.67
2025-09-22T21:18:17.786825,-8.27,-0.61,-5.65,0.06,0.02,-0.01,29.66
2025-09-22T21:18:17.889310,-8.27,-0.63,-5.65,0.04,0.03,0.0,29.67
2025-09-22T21:18:17.992320,-8.25,-0.68,-5.68,0.05,0.03,-0.0,29.69
2025-09-22T21:18:18.095313,-8.29,-0.6,-5.61,0.04,0.03,-0.0,29.66
2025-09-22T21:18:18.198368,-8.27,-0.68,-5.65,0.04,0.03,-0.0,29.67
2025-09-22T21:18:18.324625,-8.29,-0.63,-5.64,0.06,0.02,-0.0,29.67
2025-09-22T21:18:18.403594,-8.28,-0.66,-5.65,0.05,0.03,0.0,29.66
2025-09-22T21:18:18.534901,-8.27,-0.67,-5.66,0.05,0.03,-0.0,29.67
2025-09-22T21:18:18.612256,-8.27,-0.63,-5.62,0.04,0.03,-0.0,29.68
2025-09-22T21:18:18.712794,-8.26,-0.67,-5.63,0.05,0.03,0.0,29.67
2025-09-22T21:18:18.822085,-8.28,-0.62,-5.65,0.05,0.03,-0.0,29.67
2025-09-22T21:18:18.923779,-8.27,-0.65,-5.66,0.05,0.03,0.0,29.67
2025-09-22T21:18:19.035098,-8.28,-0.66,-5.68,0.05,0.03,0.0,29.68
2025-09-22T21:18:19.125807,-8.29,-0.65,-5.64,0.04,0.03,-0.0,29.68
2025-09-22T21:18:19.228853,-8.28,-0.65,-5.61,0.04,0.03,-0.0,29.68
2025-09-22T21:18:19.330936,-8.26,-0.63,-5.64,0.05,0.03,-0.0,29.66
2025-09-22T21:18:19.435447,-8.28,-0.65,-5.6,0.05,0.03,0.0,29.65
2025-09-22T21:18:19.537806,-8.28,-0.65,-5.67,0.05,0.03,-0.0,29.67
2025-09-22T21:18:19.642512,-8.27,-0.63,-5.67,0.04,0.03,0.0,29.67
2025-09-22T21:18:19.743290,-8.28,-0.65,-5.66,0.04,0.03,-0.0,29.67
2025-09-22T21:18:19.846296,-8.27,-0.63,-5.62,0.05,0.03,-0.0,29.66
2025-09-22T21:18:19.950913,-8.27,-0.64,-5.66,0.05,0.03,-0.0,29.68
2025-09-22T21:18:20.055236,-8.27,-0.65,-5.67,0.05,0.03,-0.0,29.66
2025-09-22T21:18:20.155798,-8.27,-0.64,-5.64,0.04,0.03,0.0,29.67
2025-09-22T21:18:20.258795,-8.27,-0.65,-5.67,0.04,0.03,0.0,29.67
2025-09-22T21:18:20.361325,-8.26,-0.64,-5.63,0.05,0.03,-0.0,29.67
2025-09-22T21:18:20.464795,-8.28,-0.63,-5.65,0.05,0.03,-0.0,29.67
2025-09-22T21:18:20.570040,-8.28,-0.64,-5.62,0.05,0.03,-0.0,29.68
2025-09-22T21:18:20.672177,-8.28,-0.65,-5.63,0.05,0.03,-0.0,29.67
2025-09-22T21:18:20.786915,-8.28,-0.64,-5.65,0.05,0.03,-0.0,29.67
2025-09-22T21:18:20.877341,-8.27,-0.58,-5.63,0.04,0.03,0.0,29.68
2025-09-22T21:18:20.979301,-8.27,-0.66,-5.64,0.04,0.03,0.0,29.68
2025-09-22T21:18:21.082319,-8.26,-0.68,-5.61,0.05,0.03,-0.0,29.67
2025-09-22T21:18:21.187182,-8.3,-0.6,-5.63,0.04,0.03,0.01,29.68
2025-09-22T21:18:21.287772,-8.26,-0.69,-5.67,0.04,0.03,0.0,29.69
2025-09-22T21:18:21.390774,-8.26,-0.62,-5.6,0.07,0.01,-0.02,29.68
2025-09-22T21:18:21.493775,-8.27,-0.65,-5.64,0.03,0.04,0.01,29.67
2025-09-22T21:18:21.596019,-8.26,-0.71,-5.66,0.06,0.02,-0.01,29.67
2025-09-22T21:18:21.699648,-8.27,-0.59,-5.62,0.04,0.04,0.01,29.67
2025-09-22T21:18:21.803805,-8.28,-0.68,-5.64,0.04,0.03,-0.0,29.67
2025-09-22T21:18:21.905554,-8.27,-0.62,-5.62,0.05,0.03,-0.0,29.68
2025-09-22T21:18:22.010351,-8.26,-0.69,-5.63,0.05,0.03,-0.0,29.68
2025-09-22T21:18:22.112779,-8.28,-0.66,-5.65,0.06,0.02,-0.01,29.67
2025-09-22T21:18:22.215810,-8.28,-0.61,-5.61,0.05,0.03,-0.0,29.67
2025-09-22T21:18:22.319889,-8.26,-0.67,-5.68,0.04,0.03,-0.0,29.67
2025-09-22T21:18:22.421817,-8.27,-0.63,-5.64,0.05,0.03,0.0,29.69
2025-09-22T21:18:22.524281,-8.28,-0.64,-5.64,0.04,0.03,-0.0,29.69
2025-09-22T21:18:22.627267,-8.29,-0.68,-5.64,0.06,0.02,-0.01,29.69
2025-09-22T21:18:22.728959,-8.3,-0.62,-5.62,0.05,0.03,-0.0,29.67
2025-09-22T21:18:22.833273,-8.29,-0.65,-5.62,0.04,0.03,0.0,29.69
2025-09-22T21:18:22.935749,-8.26,-0.68,-5.63,0.05,0.03,-0.0,29.68
2025-09-22T21:18:23.038762,-8.28,-0.64,-5.62,0.05,0.03,-0.0,29.68
2025-09-22T21:18:23.141766,-8.26,-0.67,-5.66,0.05,0.03,-0.0,29.67
2025-09-22T21:18:23.259282,-8.27,-0.64,-5.65,0.05,0.03,-0.0,29.66
2025-09-22T21:18:23.348280,-8.29,-0.63,-5.65,0.04,0.03,-0.0,29.68
2025-09-22T21:18:23.450565,-8.28,-0.65,-5.64,0.04,0.03,-0.0,29.66
2025-09-22T21:18:23.553680,-8.27,-0.65,-5.64,0.05,0.03,-0.0,29.68
2025-09-22T21:18:23.681994,-8.3,-0.61,-5.64,0.05,0.03,0.0,29.67
2025-09-22T21:18:23.759112,-8.25,-0.67,-5.66,0.04,0.03,0.0,29.67
2025-09-22T21:18:23.862794,-8.27,-0.67,-5.65,0.06,0.03,-0.0,29.65
2025-09-22T21:18:23.971545,-8.27,-0.59,-5.6,0.03,0.05,0.01,29.68
2025-09-22T21:18:24.069261,-8.25,-0.74,-5.67,0.05,0.03,-0.0,29.7
2025-09-22T21:18:24.174787,-8.35,-0.54,-5.59,0.05,0.02,-0.02,29.68
2025-09-22T21:18:24.277197,-8.27,-0.69,-5.63,0.04,0.03,0.0,29.69
2025-09-22T21:18:24.378760,-8.28,-0.65,-5.65,0.06,0.02,-0.0,29.67
2025-09-22T21:18:24.485774,-8.27,-0.64,-5.63,0.04,0.04,0.0,29.67
2025-09-22T21:18:24.589487,-8.27,-0.67,-5.64,0.05,0.03,-0.0,29.67
2025-09-22T21:18:24.688789,-8.26,-0.62,-5.64,0.05,0.03,-0.0,29.68
2025-09-22T21:18:24.790847,-8.26,-0.65,-5.65,0.04,0.03,0.0,29.68
2025-09-22T21:18:24.893246,-8.28,-0.66,-5.65,0.05,0.03,-0.0,29.69
2025-09-22T21:18:24.994460,-8.29,-0.62,-5.68,0.04,0.04,0.0,29.69
2025-09-22T21:18:25.099389,-8.26,-0.66,-5.65,0.05,0.03,-0.0,29.68
2025-09-22T21:18:25.202245,-8.29,-0.63,-5.62,0.05,0.03,-0.0,29.68
2025-09-22T21:18:25.305784,-8.28,-0.66,-5.67,0.05,0.03,-0.0,29.69
2025-09-22T21:18:25.408507,-8.27,-0.64,-5.66,0.05,0.03,-0.0,29.67
2025-09-22T21:18:25.512287,-8.29,-0.63,-5.65,0.04,0.04,0.0,29.68
2025-09-22T21:18:25.615257,-8.25,-0.67,-5.63,0.04,0.03,-0.0,29.69
2025-09-22T21:18:25.722317,-8.28,-0.62,-5.65,0.05,0.03,-0.0,29.67
2025-09-22T21:18:25.821288,-8.28,-0.62,-5.65,0.04,0.03,-0.0,29.66
2025-09-22T21:18:25.941840,-8.26,-0.7,-5.67,0.05,0.03,-0.0,29.69
2025-09-22T21:18:26.027235,-8.26,-0.64,-5.66,0.05,0.03,-0.0,29.67
2025-09-22T21:18:26.128819,-8.31,-0.65,-5.65,0.04,0.03,-0.0,29.67
2025-09-22T21:18:26.235634,-8.28,-0.62,-5.63,0.05,0.03,-0.0,29.67
2025-09-22T21:18:26.336756,-8.27,-0.68,-5.65,0.05,0.03,-0.0,29.66
2025-09-22T21:18:26.438773,-8.27,-0.62,-5.65,0.05,0.03,0.0,29.69
2025-09-22T21:18:26.541560,-8.26,-0.65,-5.64,0.04,0.03,0.0,29.69
2025-09-22T21:18:26.645233,-8.26,-0.66,-5.68,0.05,0.03,-0.0,29.68
2025-09-22T21:18:26.748751,-8.26,-0.62,-5.63,0.05,0.03,-0.0,29.67
2025-09-22T21:18:26.852329,-8.27,-0.66,-5.65,0.05,0.03,-0.0,29.68
2025-09-22T21:18:26.954228,-8.27,-0.64,-5.65,0.05,0.03,0.0,29.67
2025-09-22T21:18:27.056720,-8.27,-0.67,-5.66,0.04,0.03,0.0,29.67
2025-09-22T21:18:27.159071,-8.27,-0.66,-5.64,0.05,0.03,0.0,29.69
2025-09-22T21:18:27.263308,-8.27,-0.64,-5.62,0.04,0.03,-0.0,29.68
2025-09-22T21:18:27.366423,-8.26,-0.66,-5.65,0.05,0.03,-0.0,29.68
2025-09-22T21:18:27.469284,-8.29,-0.62,-5.65,0.05,0.03,-0.0,29.67
2025-09-22T21:18:27.572273,-8.29,-0.66,-5.65,0.04,0.03,0.0,29.68
2025-09-22T21:18:27.674957,-8.28,-0.67,-5.63,0.05,0.03,-0.0,29.68
2025-09-22T21:18:27.799412,-8.29,-0.64,-5.62,0.05,0.03,0.0,29.69
2025-09-22T21:18:27.881234,-8.27,-0.64,-5.66,0.05,0.03,0.0,29.67
2025-09-22T21:18:27.983755,-8.27,-0.66,-5.65,0.05,0.03,0.0,29.67
2025-09-22T21:18:28.087228,-8.29,-0.62,-5.63,0.04,0.03,0.0,29.67
2025-09-22T21:18:28.190352,-8.27,-0.64,-5.67,0.04,0.03,0.0,29.69
2025-09-22T21:18:28.311310,-8.28,-0.63,-5.64,0.05,0.03,0.0,29.66
2025-09-22T21:18:28.396214,-8.27,-0.64,-5.65,0.05,0.03,-0.0,29.68
2025-09-22T21:18:28.501944,-8.28,-0.65,-5.66,0.05,0.03,0.0,29.67
2025-09-22T21:18:28.603750,-8.28,-0.66,-5.66,0.05,0.03,-0.0,29.69
2025-09-22T21:18:28.712754,-8.26,-0.63,-5.64,0.04,0.03,0.0,29.68
2025-09-22T21:18:28.810695,-8.26,-0.66,-5.62,0.05,0.03,-0.0,29.68
2025-09-22T21:18:28.915916,-8.27,-0.6,-5.64,0.05,0.03,-0.0,29.69
2025-09-22T21:18:29.044707,-8.25,-0.66,-5.66,0.05,0.03,0.0,29.69
2025-09-22T21:18:29.138763,-8.27,-0.64,-5.66,0.05,0.03,-0.0,29.69
2025-09-22T21:18:29.252541,-8.27,-0.64,-5.63,0.05,0.03,-0.0,29.67
2025-09-22T21:18:29.352652,-8.29,-0.65,-5.62,0.05,0.03,-0.0,29.68
2025-09-22T21:18:29.455668,-8.26,-0.65,-5.66,0.06,0.02,-0.0,29.68
2025-09-22T21:18:29.531799,-8.3,-0.62,-5.66,0.05,0.03,-0.0,29.68
2025-09-22T21:18:29.661190,-8.27,-0.65,-5.69,0.04,0.03,-0.0,29.68
2025-09-22T21:18:29.766211,-8.26,-0.65,-5.65,0.05,0.03,-0.0,29.67
2025-09-22T21:18:29.866996,-8.28,-0.63,-5.64,0.05,0.03,-0.0,29.68
2025-09-22T21:18:29.962086,-8.27,-0.64,-5.65,0.04,0.03,-0.0,29.67
2025-09-22T21:18:30.044206,-8.29,-0.65,-5.68,0.06,0.03,-0.0,29.68
2025-09-22T21:18:30.166100,-8.28,-0.64,-5.66,0.04,0.03,0.0,29.7
2025-09-22T21:18:30.267514,-8.27,-0.67,-5.64,0.04,0.03,-0.0,29.67
2025-09-22T21:18:30.363429,-8.27,-0.64,-5.63,0.05,0.03,0.0,29.69
2025-09-22T21:18:30.455755,-8.26,-0.65,-5.62,0.05,0.03,-0.0,29.68
2025-09-22T21:18:30.559200,-8.29,-0.64,-5.65,0.05,0.03,0.0,29.69
2025-09-22T21:18:30.662193,-8.27,-0.66,-5.66,0.05,0.03,0.0,29.68
2025-09-22T21:18:30.783720,-8.27,-0.65,-5.63,0.04,0.03,0.0,29.69
2025-09-22T21:18:30.947244,-8.27,-0.63,-5.65,0.05,0.03,-0.0,29.68
2025-09-22T21:18:30.972320,-8.28,-0.61,-5.62,0.05,0.03,-0.0,29.67
2025-09-22T21:18:31.078778,-8.26,-0.66,-5.65,0.05,0.03,0.0,29.69
2025-09-22T21:18:31.178726,-8.25,-0.63,-5.65,0.05,0.03,-0.0,29.67
2025-09-22T21:18:31.279079,-8.28,-0.63,-5.62,0.04,0.03,0.0,29.7
2025-09-22T21:18:31.383239,-8.25,-0.69,-5.65,0.05,0.03,-0.0,29.69
2025-09-22T21:18:31.486222,-8.28,-0.61,-5.63,0.05,0.03,0.0,29.67
2025-09-22T21:18:31.589207,-8.28,-0.68,-5.67,0.05,0.03,0.0,29.69
2025-09-22T21:18:31.710163,-8.26,-0.65,-5.65,0.05,0.03,-0.0,29.7
2025-09-22T21:18:31.795186,-8.28,-0.64,-5.64,0.04,0.03,0.0,29.69
2025-09-22T21:18:31.897768,-8.27,-0.67,-5.64,0.05,0.03,-0.0,29.68
2025-09-22T21:18:32.001152,-8.27,-0.64,-5.63,0.05,0.03,-0.0,29.67
2025-09-22T21:18:32.104300,-8.28,-0.63,-5.65,0.05,0.03,-0.0,29.69
2025-09-22T21:18:32.207209,-8.27,-0.68,-5.65,0.04,0.03,0.0,29.67
2025-09-22T21:18:32.310210,-8.26,-0.64,-5.62,0.05,0.03,0.0,29.68
2025-09-22T21:18:32.413253,-8.28,-0.65,-5.66,0.04,0.03,-0.0,29.68
2025-09-22T21:18:32.516214,-8.29,-0.65,-5.64,0.05,0.03,-0.0,29.68
2025-09-22T21:18:32.620761,-8.27,-0.64,-5.64,0.05,0.03,-0.0,29.71
2025-09-22T21:18:32.722230,-8.26,-0.65,-5.62,0.05,0.03,-0.0,29.69
2025-09-22T21:18:32.825222,-8.28,-0.64,-5.64,0.04,0.03,-0.0,29.69
2025-09-22T21:18:32.950452,-8.28,-0.66,-5.62,0.04,0.03,-0.0,29.67
2025-09-22T21:18:33.044561,-8.29,-0.63,-5.65,0.05,0.03,-0.0,29.69
2025-09-22T21:18:33.145623,-8.3,-0.65,-5.64,0.05,0.03,-0.0,29.69
2025-09-22T21:18:33.252381,-8.29,-0.65,-5.66,0.05,0.03,0.0,29.68
2025-09-22T21:18:33.369441,-8.28,-0.64,-5.64,0.04,0.03,0.0,29.69
2025-09-22T21:18:33.448570,-8.27,-0.66,-5.63,0.04,0.03,-0.0,29.66
2025-09-22T21:18:33.576061,-8.27,-0.64,-5.63,0.05,0.03,-0.0,29.67
2025-09-22T21:18:33.678697,-8.26,-0.64,-5.66,0.05,0.03,-0.0,29.69
2025-09-22T21:18:33.769747,-8.26,-0.65,-5.64,0.05,0.03,-0.0,29.67
2025-09-22T21:18:33.884967,-8.26,-0.63,-5.65,0.04,0.03,0.0,29.68
2025-09-22T21:18:33.955957,-8.28,-0.64,-5.68,0.04,0.03,0.0,29.68
2025-09-22T21:18:34.059639,-8.29,-0.66,-5.62,0.05,0.03,-0.0,29.66
2025-09-22T21:18:34.162025,-8.27,-0.64,-5.65,0.05,0.03,-0.0,29.68
2025-09-22T21:18:34.266175,-8.26,-0.65,-5.65,0.05,0.03,-0.0,29.69
2025-09-22T21:18:34.369548,-8.27,-0.65,-5.64,0.04,0.03,0.0,29.67
2025-09-22T21:18:34.476205,-8.28,-0.64,-5.65,0.04,0.03,-0.0,29.67
2025-09-22T21:18:34.574888,-8.26,-0.65,-5.64,0.05,0.03,-0.0,29.71
2025-09-22T21:18:34.677895,-8.29,-0.65,-5.62,0.05,0.03,-0.0,29.67
2025-09-22T21:18:34.781059,-8.26,-0.64,-5.66,0.05,0.03,-0.0,29.67
2025-09-22T21:18:34.885726,-8.28,-0.63,-5.66,0.05,0.03,0.0,29.68
2025-09-22T21:18:35.018186,-8.28,-0.66,-5.63,0.04,0.03,0.0,29.68
2025-09-22T21:18:35.120734,-8.28,-0.64,-5.67,0.05,0.03,0.0,29.69
2025-09-22T21:18:35.222670,-8.26,-0.63,-5.63,0.05,0.03,-0.0,29.68
2025-09-22T21:18:35.326799,-8.28,-0.64,-5.68,0.05,0.03,-0.0,29.68
2025-09-22T21:18:35.428893,-8.3,-0.66,-5.64,0.05,0.03,0.0,29.68
2025-09-22T21:18:35.509065,-8.26,-0.66,-5.64,0.04,0.03,0.0,29.69
2025-09-22T21:18:35.635502,-8.27,-0.66,-5.63,0.05,0.03,0.0,29.69
2025-09-22T21:18:35.719643,-8.27,-0.64,-5.64,0.05,0.03,0.0,29.68
2025-09-22T21:18:35.840761,-8.26,-0.65,-5.65,0.05,0.03,0.0,29.67
2025-09-22T21:18:35.945228,-8.27,-0.64,-5.65,0.05,0.03,0.0,29.67
2025-09-22T21:18:36.047368,-8.28,-0.65,-5.62,0.04,0.03,-0.0,29.69
2025-09-22T21:18:36.150414,-8.27,-0.64,-5.63,0.04,0.03,-0.0,29.67
2025-09-22T21:18:36.257431,-8.28,-0.64,-5.64,0.05,0.03,-0.0,29.67
2025-09-22T21:18:36.360571,-8.28,-0.64,-5.64,0.05,0.03,0.0,29.68
2025-09-22T21:18:36.461842,-8.29,-0.65,-5.66,0.05,0.03,0.0,29.68
2025-09-22T21:18:36.565134,-8.26,-0.64,-5.63,0.04,0.03,0.0,29.68
2025-09-22T21:18:36.669357,-8.27,-0.64,-5.61,0.04,0.03,0.0,29.67
2025-09-22T21:18:36.769076,-8.27,-0.66,-5.64,0.05,0.03,0.0,29.69
2025-09-22T21:18:36.871741,-8.28,-0.63,-5.61,0.05,0.03,-0.0,29.66
2025-09-22T21:18:36.947631,-8.29,-0.64,-5.64,0.05,0.03,-0.0,29.67
2025-09-22T21:18:37.048174,-8.27,-0.65,-5.65,0.05,0.03,-0.0,29.68
2025-09-22T21:18:37.151194,-8.26,-0.65,-5.63,0.04,0.03,0.0,29.67
2025-09-22T21:18:37.255516,-8.26,-0.64,-5.62,0.04,0.03,0.0,29.67
2025-09-22T21:18:37.358712,-8.27,-0.66,-5.66,0.05,0.03,-0.0,29.68
2025-09-22T21:18:37.462059,-8.27,-0.64,-5.63,0.05,0.03,0.0,29.66
2025-09-22T21:18:37.567434,-8.29,-0.65,-5.65,0.05,0.03,-0.0,29.67
2025-09-22T21:18:37.673484,-8.28,-0.63,-5.66,0.05,0.03,0.0,29.65
2025-09-22T21:18:37.772786,-8.28,-0.62,-5.65,0.04,0.03,0.0,29.67
2025-09-22T21:18:37.876319,-8.27,-0.64,-5.65,0.05,0.03,-0.0,29.66
2025-09-22T21:18:37.986633,-8.26,-0.64,-5.65,0.05,0.03,-0.0,29.67
2025-09-22T21:18:38.079265,-8.26,-0.66,-5.66,0.05,0.03,-0.0,29.68
2025-09-22T21:18:38.182939,-8.27,-0.61,-5.63,0.05,0.03,0.0,29.68
2025-09-22T21:18:38.289322,-8.27,-0.66,-5.65,0.04,0.03,0.0,29.68
2025-09-22T21:18:38.390310,-8.27,-0.67,-5.65,0.05,0.03,-0.0,29.67
2025-09-22T21:18:38.491212,-8.28,-0.64,-5.64,0.05,0.03,0.0,29.67
2025-09-22T21:18:38.594183,-8.27,-0.63,-5.66,0.05,0.03,-0.0,29.67
2025-09-22T21:18:38.695533,-8.28,-0.65,-5.65,0.05,0.03,-0.0,29.66
2025-09-22T21:18:38.810097,-8.28,-0.62,-5.67,0.05,0.03,-0.0,29.67
2025-09-22T21:18:38.905264,-8.26,-0.65,-5.66,0.05,0.03,0.0,29.67
2025-09-22T21:18:39.005161,-8.29,-0.63,-5.67,0.05,0.03,-0.0,29.67
2025-09-22T21:18:39.108154,-8.25,-0.62,-5.63,0.05,0.03,0.0,29.68
2025-09-22T21:18:39.232588,-8.26,-0.65,-5.66,0.05,0.03,-0.0,29.67
2025-09-22T21:18:39.313239,-8.28,-0.63,-5.65,0.05,0.03,-0.0,29.67
2025-09-22T21:18:39.416719,-8.29,-0.66,-5.66,0.05,0.03,-0.0,29.65
2025-09-22T21:18:39.617956,-8.29,-0.61,-5.62,0.05,0.03,-0.0,29.68
2025-09-22T21:18:39.643373,-8.29,-0.62,-5.64,0.04,0.03,0.0,29.67
2025-09-22T21:18:39.744329,-8.26,-0.69,-5.66,0.05,0.03,-0.0,29.67
2025-09-22T21:18:39.886362,-8.29,-0.61,-5.65,0.05,0.03,-0.0,29.67
2025-09-22T21:18:39.976746,-8.26,-0.67,-5.65,0.04,0.03,0.0,29.68
2025-09-22T21:18:40.056060,-8.29,-0.65,-5.63,0.05,0.03,-0.0,29.67
2025-09-22T21:18:40.142265,-8.27,-0.62,-5.65,0.04,0.03,0.0,29.68
2025-09-22T21:18:40.241144,-8.25,-0.63,-5.67,0.05,0.03,0.0,29.66
2025-09-22T21:18:40.344133,-8.28,-0.68,-5.64,0.04,0.03,-0.0,29.69
2025-09-22T21:18:40.447228,-8.27,-0.63,-5.62,0.05,0.03,-0.0,29.68
2025-09-22T21:18:40.550169,-8.29,-0.62,-5.62,0.05,0.03,0.0,29.69
2025-09-22T21:18:40.654194,-8.23,-0.63,-5.66,0.04,0.04,0.0,29.66
2025-09-22T21:18:40.756147,-8.34,-0.52,-5.54,0.06,0.02,0.02,29.68
2025-09-22T21:18:40.859141,-8.26,-0.72,-5.68,0.02,0.05,0.02,29.67
2025-09-22T21:18:40.962134,-8.29,-0.58,-5.6,0.05,0.02,0.01,29.67
2025-09-22T21:18:41.065152,-8.28,-0.71,-5.66,0.05,0.02,0.0,29.67
2025-09-22T21:18:41.168780,-8.25,-0.63,-5.66,0.07,0.01,-0.02,29.68
2025-09-22T21:18:41.271099,-8.28,-0.63,-5.65,0.04,0.04,0.01,29.68
2025-09-22T21:18:41.374162,-8.26,-0.65,-5.65,0.05,0.03,0.01,29.69
2025-09-22T21:18:41.480233,-8.27,-0.63,-5.62,0.04,0.03,0.01,29.69
2025-09-22T21:18:41.583187,-8.26,-0.65,-5.64,0.05,0.03,0.01,29.68
2025-09-22T21:18:41.685421,-8.29,-0.64,-5.62,0.05,0.03,0.01,29.68
2025-09-22T21:18:41.787698,-8.29,-0.65,-5.64,0.04,0.03,0.01,29.67
2025-09-22T21:18:41.892593,-8.27,-0.65,-5.64,0.05,0.03,0.0,29.67
2025-09-22T21:18:41.994200,-8.26,-0.62,-5.64,0.04,0.04,0.01,29.68
2025-09-22T21:18:42.095644,-8.27,-0.67,-5.63,0.04,0.03,0.0,29.67
2025-09-22T21:18:42.199735,-8.26,-0.64,-5.65,0.05,0.03,0.0,29.68
2025-09-22T21:18:42.301164,-8.28,-0.63,-5.63,0.05,0.03,0.0,29.67
2025-09-22T21:18:42.403559,-8.26,-0.65,-5.63,0.05,0.03,-0.0,29.69
2025-09-22T21:18:42.507639,-8.29,-0.64,-5.64,0.05,0.03,0.0,29.7
2025-09-22T21:18:42.610248,-8.28,-0.63,-5.64,0.04,0.03,0.0,29.69
2025-09-22T21:18:42.721609,-8.27,-0.65,-5.63,0.04,0.03,0.0,29.68
2025-09-22T21:18:42.815271,-8.27,-0.62,-5.62,0.05,0.03,0.0,29.68
2025-09-22T21:18:42.919125,-8.29,-0.66,-5.62,0.05,0.03,0.0,29.68
2025-09-22T21:18:43.045379,-8.28,-0.65,-5.63,0.05,0.03,-0.0,29.68
2025-09-22T21:19:53.629408,-8.32,-0.44,-5.5,0.02,0.07,0.07,29.61
2025-09-22T21:19:53.731981,-8.14,-0.76,-5.85,0.07,0.03,-0.02,29.63
2025-09-22T21:19:53.833999,-8.3,-0.51,-5.75,0.04,0.04,-0.02,29.62
2025-09-22T21:19:53.935528,-8.25,-0.6,-5.74,0.05,0.04,0.01,29.62
2025-09-22T21:19:54.024044,-8.24,-0.55,-5.8,0.02,0.1,0.0,29.64
2025-09-22T21:19:54.135692,-8.28,-0.56,-5.68,0.05,0.03,-0.03,29.63
2025-09-22T21:19:54.244702,-8.33,-0.62,-5.83,0.07,-0.03,-0.01,29.65
2025-09-22T21:19:54.341186,-8.26,-0.56,-5.75,0.07,-0.0,-0.05,29.64
2025-09-22T21:19:54.445092,-8.23,-0.62,-5.68,0.05,0.02,-0.0,29.64
2025-09-22T21:19:54.557338,-8.25,-0.62,-5.69,0.06,0.0,-0.04,29.66
2025-09-22T21:19:54.656518,-8.27,-0.57,-5.71,0.05,0.02,-0.01,29.66
2025-09-22T21:19:54.744755,-8.27,-0.55,-5.67,0.04,0.02,0.04,29.66
2025-09-22T21:19:54.856166,-8.15,-0.73,-5.73,0.03,0.05,0.02,29.65
2025-09-22T21:19:54.966292,-8.22,-0.66,-5.71,0.08,-0.0,-0.06,29.65
2025-09-22T21:19:55.056377,-8.3,-0.54,-5.66,0.05,0.02,-0.0,29.66
2025-09-22T21:19:55.175177,-8.24,-0.58,-5.71,0.04,0.06,0.02,29.64
2025-09-22T21:19:55.280563,-8.19,-0.65,-5.76,0.03,0.05,0.07,29.65
2025-09-22T21:19:55.394735,-8.25,-0.56,-5.59,0.05,0.02,-0.02,29.66
2025-09-22T21:19:55.468730,-8.26,-0.57,-5.66,0.04,0.03,0.02,29.67
2025-09-22T21:19:55.603507,-8.28,-0.52,-5.72,0.06,0.02,0.03,29.66
2025-09-22T21:19:55.724244,-8.25,-0.57,-5.68,0.01,0.07,0.08,29.67
2025-09-22T21:19:55.790531,-8.21,-0.63,-5.75,0.08,-0.02,-0.06,29.65
2025-09-22T21:19:55.897711,-8.31,-0.51,-5.67,0.02,0.06,0.02,29.66
2025-09-22T21:19:55.986971,-8.16,-0.62,-5.64,0.04,0.05,0.04,29.67
2025-09-22T21:19:56.101759,-8.18,-0.68,-5.75,0.04,0.05,0.01,29.65
2025-09-22T21:19:56.211758,-8.26,-0.57,-5.78,0.07,-0.0,-0.03,29.65
2025-09-22T21:19:56.293896,-8.26,-0.64,-5.78,0.03,0.04,0.08,29.66
2025-09-22T21:19:56.411226,-8.23,-0.64,-5.69,0.05,0.03,-0.01,29.67
2025-09-22T21:19:56.517696,-8.23,-0.61,-5.75,0.04,0.04,-0.0,29.66
2025-09-22T21:19:56.616948,-8.28,-0.56,-5.66,0.05,0.04,-0.04,29.67
2025-09-22T21:19:56.714696,-8.26,-0.62,-5.74,0.05,0.03,0.03,29.66
2025-09-22T21:19:56.816032,-8.15,-0.66,-5.87,0.05,0.05,-0.01,29.67
2025-09-22T21:19:56.905160,-8.29,-0.58,-5.62,0.02,0.07,0.05,29.68
2025-09-22T21:19:57.047134,-8.23,-0.68,-5.7,0.06,0.02,-0.02,29.66
2025-09-22T21:19:57.141195,-8.29,-0.55,-5.77,0.03,0.05,0.07,29.66
2025-09-22T21:19:57.242814,-8.26,-0.68,-5.73,0.04,0.03,0.02,29.67
2025-09-22T21:19:57.336213,-8.32,-0.49,-5.58,0.05,-0.01,0.05,29.67
2025-09-22T21:19:57.466270,-8.25,-0.62,-5.62,0.05,0.01,0.02,29.67
2025-09-22T21:19:57.577714,-8.27,-0.56,-5.72,0.07,0.0,-0.01,29.68
2025-09-22T21:19:57.654197,-8.27,-0.58,-5.71,0.04,0.04,0.03,29.67
2025-09-22T21:19:57.756228,-8.28,-0.54,-5.71,0.05,0.03,-0.02,29.67
2025-09-22T21:19:57.848201,-8.33,-0.55,-5.72,0.03,0.05,0.04,29.66
2025-09-22T21:19:57.958976,-8.19,-0.68,-5.73,0.05,0.02,0.0,29.66
2025-09-22T21:19:58.063121,-8.28,-0.64,-5.73,0.03,0.04,0.05,29.66
2025-09-22T21:19:58.161208,-8.08,-0.72,-5.75,0.04,0.05,-0.02,29.66
2025-09-22T21:19:58.257097,-8.26,-0.51,-5.64,0.03,0.08,0.04,29.67
2025-09-22T21:19:58.378268,-8.15,-0.7,-5.68,0.04,0.07,-0.0,29.67
2025-09-22T21:19:58.461571,-8.03,-0.76,-5.71,0.09,0.01,-0.08,29.66
2025-09-22T21:19:58.628796,-8.26,-0.48,-5.75,0.03,0.07,0.08,29.67
2025-09-22T21:19:58.727438,-8.23,-0.67,-5.73,0.03,0.07,0.06,29.67
2025-09-22T21:19:58.784949,-8.26,-0.61,-5.62,0.04,0.03,0.02,29.68
2025-09-22T21:19:58.896999,-8.21,-0.59,-5.77,0.05,0.03,0.01,29.68
2025-09-22T21:19:58.986356,-8.24,-0.56,-5.73,0.02,0.06,0.05,29.67
2025-09-22T21:19:59.063350,-8.26,-0.61,-5.67,0.06,0.03,0.0,29.69
2025-09-22T21:19:59.198849,-8.23,-0.64,-5.69,0.04,0.04,0.0,29.67
2025-09-22T21:19:59.298323,-8.26,-0.57,-5.7,0.05,0.02,-0.03,29.68
2025-09-22T21:19:59.408910,-8.26,-0.56,-5.68,0.03,0.05,0.04,29.68
2025-09-22T21:19:59.501533,-8.24,-0.63,-5.7,0.05,0.03,0.01,29.66
2025-09-22T21:19:59.620237,-8.24,-0.6,-5.7,0.05,0.03,-0.01,29.67
2025-09-22T21:19:59.714180,-8.25,-0.59,-5.7,0.05,0.03,-0.0,29.67
2025-09-22T21:19:59.809086,-8.25,-0.58,-5.72,0.05,0.03,0.0,29.66
2025-09-22T21:19:59.914867,-8.22,-0.61,-5.73,0.04,0.04,0.02,29.66
2025-09-22T21:20:00.023602,-8.23,-0.58,-5.72,0.05,0.02,-0.01,29.67
2025-09-22T21:20:00.125901,-8.25,-0.61,-5.74,0.05,0.03,-0.01,29.66
2025-09-22T21:20:00.225660,-8.27,-0.59,-5.7,0.05,0.03,0.01,29.67
2025-09-22T21:20:00.334961,-8.22,-0.6,-5.7,0.04,0.04,0.01,29.67
2025-09-22T21:20:00.410801,-8.22,-0.6,-5.72,0.05,0.03,-0.01,29.66
2025-09-22T21:20:00.532939,-8.24,-0.6,-5.73,0.05,0.03,-0.01,29.68
2025-09-22T21:20:00.642872,-8.25,-0.6,-5.71,0.05,0.03,-0.01,29.66
2025-09-22T21:20:00.741655,-8.23,-0.61,-5.69,0.05,0.03,0.01,29.68
2025-09-22T21:20:00.850417,-8.24,-0.62,-5.71,0.04,0.03,0.0,29.68
2025-09-22T21:20:00.961272,-8.24,-0.63,-5.73,0.05,0.03,-0.0,29.68
2025-09-22T21:20:01.045737,-8.23,-0.61,-5.7,0.05,0.03,-0.0,29.68
2025-09-22T21:20:01.168054,-8.24,-0.59,-5.68,0.05,0.03,-0.01,29.67
2025-09-22T21:20:01.276223,-8.24,-0.64,-5.73,0.05,0.02,-0.03,29.67
2025-09-22T21:20:01.374725,-8.28,-0.58,-5.72,0.06,0.02,-0.01,29.67
2025-09-22T21:20:01.460134,-8.21,-0.62,-5.74,0.05,0.03,0.01,29.67
2025-09-22T21:20:01.568552,-8.23,-0.62,-5.73,0.04,0.03,0.01,29.68
2025-09-22T21:20:01.686441,-8.25,-0.63,-5.7,0.05,0.02,-0.02,29.67
2025-09-22T21:20:01.780850,-8.23,-0.59,-5.71,0.04,0.04,0.02,29.67
2025-09-22T21:20:01.960328,-8.23,-0.62,-5.74,0.05,0.03,-0.0,29.67
2025-09-22T21:20:01.960328,-8.25,-0.62,-5.69,0.05,0.02,-0.03,29.67
2025-09-22T21:20:02.046851,-8.25,-0.58,-5.7,0.04,0.05,-0.01,29.67
2025-09-22T21:20:02.150866,-8.31,-0.5,-5.58,0.03,0.04,0.07,29.67
2025-09-22T21:20:02.253383,-8.21,-0.62,-5.67,0.05,0.02,0.03,29.67
2025-09-22T21:20:02.355323,-8.23,-0.58,-5.75,0.04,0.03,0.02,29.67
2025-09-22T21:20:02.478929,-8.27,-0.63,-5.72,0.03,0.04,0.03,29.68
2025-09-22T21:20:05.898012,-8.25,-0.61,-5.73,0.06,0.01,-0.01,29.71
2025-09-22T21:20:06.000319,-8.24,-0.55,-5.69,0.03,0.06,0.04,29.68
2025-09-22T21:20:06.123675,-8.23,-0.63,-5.7,0.05,0.02,-0.03,29.67
2025-09-22T21:20:06.221973,-8.24,-0.57,-5.75,0.05,0.03,-0.01,29.68
2025-09-22T21:20:06.325841,-8.24,-0.59,-5.71,0.04,0.04,0.02,29.68
2025-09-22T21:20:06.410804,-8.26,-0.58,-5.68,0.03,0.05,0.03,29.69
2025-09-22T21:20:06.514627,-8.23,-0.63,-5.71,0.05,0.02,-0.02,29.69
2025-09-22T21:20:06.620265,-8.29,-0.51,-5.69,0.04,0.03,0.01,29.69
2025-09-22T21:20:06.720364,-8.23,-0.64,-5.73,0.04,0.04,0.03,29.7
2025-09-22T21:20:06.822779,-8.22,-0.64,-5.7,0.06,0.01,-0.02,29.69
2025-09-22T21:20:06.925785,-8.25,-0.58,-5.67,0.04,0.03,0.0,29.7
2025-09-22T21:20:07.031481,-8.25,-0.62,-5.7,0.05,0.02,-0.01,29.68
2025-09-22T21:20:07.131765,-8.25,-0.61,-5.69,0.05,0.03,0.0,29.7
2025-09-22T21:20:07.234814,-8.24,-0.62,-5.71,0.06,0.01,-0.03,29.68
2025-09-22T21:20:07.348706,-8.23,-0.58,-5.71,0.04,0.03,-0.0,29.69
2025-09-22T21:20:07.458928,-8.23,-0.63,-5.72,0.06,0.02,-0.02,29.68
2025-09-22T21:20:07.551050,-8.23,-0.57,-5.68,0.05,0.03,0.01,29.68
2025-09-22T21:20:07.658198,-8.21,-0.66,-5.69,0.04,0.03,0.01,29.67
2025-09-22T21:20:07.754255,-8.25,-0.62,-5.71,0.06,0.01,-0.03,29.69
2025-09-22T21:20:07.855973,-8.26,-0.56,-5.7,0.04,0.04,0.02,29.68
2025-09-22T21:20:07.957036,-8.23,-0.65,-5.7,0.04,0.04,0.02,29.69
2025-09-22T21:20:08.070041,-8.23,-0.64,-5.72,0.06,0.01,-0.04,29.67
2025-09-22T21:20:08.161797,-8.27,-0.54,-5.68,0.05,0.03,0.01,29.67
2025-09-22T21:20:08.265274,-8.23,-0.63,-5.7,0.04,0.04,0.03,29.69
2025-09-22T21:20:08.376676,-8.22,-0.63,-5.69,0.06,0.01,-0.03,29.69
2025-09-22T21:20:08.475494,-8.26,-0.58,-5.71,0.05,0.03,-0.01,29.69
2025-09-22T21:20:08.578467,-8.25,-0.6,-5.69,0.04,0.04,0.02,29.69
2025-09-22T21:20:08.676778,-8.22,-0.61,-5.7,0.05,0.04,0.01,29.69
2025-09-22T21:20:08.779060,-8.23,-0.6,-5.72,0.04,0.03,-0.0,29.67
2025-09-22T21:20:08.882752,-8.27,-0.58,-5.69,0.05,0.03,-0.01,29.68
2025-09-22T21:20:08.985797,-8.27,-0.57,-5.7,0.05,0.03,0.01,29.69
2025-09-22T21:20:09.088847,-8.23,-0.61,-5.72,0.05,0.03,-0.0,29.69
2025-09-22T21:20:09.191815,-8.25,-0.61,-5.69,0.05,0.02,-0.02,29.68
2025-09-22T21:20:09.294657,-8.27,-0.58,-5.68,0.05,0.03,-0.01,29.7
2025-09-22T21:20:09.397582,-8.25,-0.59,-5.7,0.05,0.03,0.01,29.69
2025-09-22T21:20:09.502948,-8.23,-0.63,-5.67,0.05,0.02,-0.01,29.7
2025-09-22T21:20:09.617324,-8.25,-0.6,-5.73,0.05,0.02,-0.01,29.7
2025-09-22T21:20:09.706754,-8.24,-0.61,-5.71,0.05,0.03,0.01,29.71
2025-09-22T21:20:09.830888,-8.24,-0.59,-5.71,0.05,0.03,0.01,29.69
2025-09-22T21:20:09.922752,-8.25,-0.61,-5.69,0.05,0.03,-0.01,29.68
2025-09-22T21:20:10.028279,-8.26,-0.6,-5.73,0.05,0.03,-0.0,29.71
2025-09-22T21:20:10.118852,-8.25,-0.59,-5.71,0.05,0.04,0.02,29.69
2025-09-22T21:20:10.221845,-8.22,-0.58,-5.71,0.04,0.04,0.0,29.7
2025-09-22T21:20:10.330496,-8.26,-0.62,-5.68,0.05,0.03,-0.02,29.69
2025-09-22T21:20:10.427747,-8.28,-0.57,-5.72,0.04,0.05,0.03,29.69
2025-09-22T21:20:10.530866,-8.22,-0.65,-5.72,0.05,0.02,-0.01,29.69
2025-09-22T21:20:10.632798,-8.24,-0.57,-5.7,0.06,0.01,-0.03,29.7
2025-09-22T21:20:10.757990,-8.25,-0.59,-5.71,0.04,0.04,0.02,29.7
2025-09-22T21:20:10.841957,-8.23,-0.64,-5.7,0.06,0.02,-0.01,29.69
2025-09-22T21:20:10.944399,-8.26,-0.55,-5.7,0.05,0.03,0.02,29.71
2025-09-22T21:20:11.048412,-8.23,-0.64,-5.71,0.03,0.04,0.02,29.67
2025-09-22T21:20:11.150891,-8.25,-0.64,-5.73,0.05,0.03,-0.0,29.7
2025-09-22T21:20:11.253921,-8.22,-0.6,-5.74,0.05,0.03,0.01,29.7
2025-09-22T21:20:11.355922,-8.19,-0.58,-5.67,0.05,0.04,0.01,29.7
2025-09-22T21:20:11.457671,-8.14,-0.76,-5.82,0.05,0.04,-0.04,29.69
2025-09-22T21:20:11.563943,-8.26,-0.51,-5.66,0.05,0.04,0.01,29.69
2025-09-22T21:20:11.662626,-8.2,-0.7,-5.7,0.03,0.05,0.05,29.7
2025-09-22T21:20:11.766855,-8.26,-0.56,-5.67,0.06,0.02,-0.02,29.68
2025-09-22T21:20:11.869734,-8.21,-0.65,-5.76,0.04,0.03,0.03,29.67
2025-09-22T21:20:11.973310,-8.21,-0.63,-5.78,0.04,0.05,0.01,29.68
2025-09-22T21:20:12.075559,-8.28,-0.6,-5.69,0.04,0.05,0.0,29.7
2025-09-22T21:20:12.178796,-8.24,-0.63,-5.77,0.04,0.02,0.0,29.68
2025-09-22T21:20:12.309042,-8.29,-0.57,-5.73,0.06,0.02,-0.02,29.7
2025-09-22T21:20:12.385838,-8.24,-0.62,-5.67,0.04,0.04,0.02,29.69
2025-09-22T21:20:12.489887,-8.21,-0.65,-5.71,0.06,0.02,-0.02,29.71
2025-09-22T21:20:12.591341,-8.26,-0.58,-5.7,0.05,0.02,-0.01,29.69
2025-09-22T21:20:12.694843,-8.27,-0.61,-5.72,0.05,0.03,-0.01,29.68
2025-09-22T21:20:12.795950,-8.23,-0.62,-5.72,0.05,0.03,0.0,29.69
2025-09-22T21:20:12.904323,-8.25,-0.56,-5.71,0.05,0.03,-0.01,29.7
2025-09-22T21:20:13.005177,-8.25,-0.61,-5.81,0.05,0.05,-0.01,29.69
2025-09-22T21:20:13.118825,-8.22,-0.61,-5.73,0.04,0.05,0.05,29.68
2025-09-22T21:20:13.209295,-8.24,-0.54,-5.64,0.05,0.05,-0.05,29.69
2025-09-22T21:20:13.318713,-8.22,-0.61,-5.69,0.05,0.03,-0.04,29.7
2025-09-22T21:20:13.414811,-8.22,-0.54,-5.67,0.07,0.0,-0.04,29.7
2025-09-22T21:20:13.517720,-8.23,-0.57,-5.78,0.01,0.09,0.06,29.7
2025-09-22T21:20:13.620781,-8.25,-0.62,-5.68,0.06,0.01,-0.04,29.69
2025-09-22T21:20:13.723798,-8.3,-0.53,-5.61,0.07,-0.02,-0.07,29.7
2025-09-22T21:20:13.826780,-8.23,-0.56,-5.74,0.05,0.04,0.02,29.69
2025-09-22T21:20:13.929008,-8.23,-0.6,-5.74,0.04,0.04,0.01,29.69
2025-09-22T21:20:14.032781,-8.22,-0.62,-5.72,0.03,0.04,-0.01,29.7
2025-09-22T21:20:14.136277,-8.22,-0.64,-5.69,0.08,-0.0,-0.07,29.71
2025-09-22T21:20:14.238713,-8.29,-0.53,-5.63,0.04,0.03,0.0,29.69
2025-09-22T21:20:14.341826,-8.2,-0.68,-5.81,0.05,0.02,-0.02,29.7
2025-09-22T21:20:14.444820,-8.2,-0.64,-5.72,0.03,0.06,0.03,29.7
2025-09-22T21:20:14.649090,-8.26,-0.65,-5.71,0.04,0.04,0.06,29.69
2025-09-22T21:20:14.650593,-8.24,-0.68,-5.73,0.03,0.07,0.02,29.69
2025-09-22T21:20:14.754272,-8.32,-0.49,-5.68,0.05,-0.0,0.03,29.69
2025-09-22T21:20:14.859896,-8.27,-0.64,-5.7,0.02,0.07,0.09,29.71
2025-09-22T21:20:15.004540,-8.36,-0.52,-5.66,0.08,-0.0,-0.02,29.69
2025-09-22T21:20:15.085993,-8.26,-0.58,-5.77,0.05,0.02,0.0,29.69
2025-09-22T21:20:15.165780,-8.24,-0.6,-5.7,0.05,0.02,-0.06,29.68
2025-09-22T21:20:15.271904,-8.28,-0.53,-5.64,0.04,0.04,0.0,29.7
2025-09-22T21:20:15.421873,-8.3,-0.6,-5.69,0.06,0.0,0.01,29.7
2025-09-22T21:20:15.478198,-8.22,-0.62,-5.71,0.04,0.03,-0.01,29.7
2025-09-22T21:20:15.589596,-8.23,-0.57,-5.7,0.04,0.04,0.01,29.7
2025-09-22T21:20:15.680750,-8.25,-0.67,-5.77,0.04,0.06,0.01,29.69
2025-09-22T21:20:15.783770,-8.22,-0.67,-5.79,0.09,-0.03,-0.1,29.69
2025-09-22T21:20:15.895858,-8.26,-0.54,-5.71,0.02,0.05,0.04,29.7
2025-09-22T21:20:15.990978,-8.19,-0.71,-5.7,0.05,0.02,-0.02,29.69
2025-09-22T21:20:16.093413,-8.25,-0.57,-5.66,0.06,0.02,-0.02,29.7
2025-09-22T21:20:16.205517,-8.18,-0.69,-5.7,0.04,0.03,0.01,29.69
2025-09-22T21:20:16.298780,-8.25,-0.61,-5.72,0.05,0.02,-0.03,29.69
2025-09-22T21:20:16.431798,-8.25,-0.57,-5.71,0.04,0.04,0.01,29.69
2025-09-22T21:20:16.504563,-8.24,-0.64,-5.71,0.04,0.04,0.03,29.69
2025-09-22T21:20:16.610347,-8.21,-0.62,-5.72,0.05,0.02,-0.02,29.68
2025-09-22T21:20:16.722129,-8.25,-0.57,-5.69,0.05,0.03,-0.01,29.71
2025-09-22T21:20:16.821374,-8.24,-0.62,-5.72,0.03,0.05,0.04,29.72
2025-09-22T21:20:16.918864,-8.24,-0.65,-5.72,0.05,0.03,-0.01,29.7
2025-09-22T21:20:17.020944,-8.25,-0.56,-5.7,0.01,0.06,0.08,29.69
2025-09-22T21:20:17.124327,-8.26,-0.47,-5.57,-0.15,-0.25,-0.31,29.7
2025-09-22T21:20:17.227248,-8.14,-0.73,-5.91,-0.25,0.3,-0.02,29.69
2025-09-22T21:20:17.330350,-7.97,0.55,-6.17,0.46,-0.03,0.16,29.68
2025-09-22T21:20:17.432796,-8.06,-0.14,-6.11,0.01,0.06,-0.02,29.68
2025-09-22T21:20:17.536241,-8.07,-0.07,-6.08,0.11,-0.02,0.03,29.69
2025-09-22T21:20:17.640285,-8.13,-0.23,-5.89,-0.29,0.02,-0.15,29.69
2025-09-22T21:20:17.741527,-8.11,0.01,-6.14,0.26,-0.12,-0.23,29.7
2025-09-22T21:20:17.847908,-7.68,-0.82,-5.37,0.06,-0.01,-0.04,29.71
2025-09-22T21:20:17.951401,-8.18,-0.48,-5.56,0.06,-0.0,0.04,29.69
2025-09-22T21:20:18.050679,-8.25,-0.54,-5.62,0.12,-0.15,-0.16,29.7
2025-09-22T21:20:18.153735,-8.34,-0.45,-5.47,-0.11,0.2,0.27,29.69
2025-09-22T21:20:18.256687,-8.27,-0.4,-5.58,0.02,0.11,0.12,29.71
2025-09-22T21:20:18.359498,-8.32,0.02,-5.57,0.03,0.19,0.16,29.69
2025-09-22T21:20:18.463287,-8.24,0.14,-5.73,-0.0,0.22,-0.06,29.69
2025-09-22T21:20:18.565780,-8.14,-0.09,-5.92,0.07,0.02,-0.01,29.69
2025-09-22T21:20:18.668561,-8.18,-0.05,-5.9,0.1,0.01,0.01,29.71
2025-09-22T21:20:18.771576,-8.29,-0.26,-5.69,0.13,-0.13,-0.14,29.71
2025-09-22T21:20:18.874560,-8.15,-0.47,-5.64,0.05,0.01,-0.06,29.72
2025-09-22T21:20:18.978270,-8.36,-0.28,-5.61,0.07,-0.04,-0.05,29.7
2025-09-22T21:20:19.081291,-8.25,-0.52,-5.55,0.05,0.01,-0.03,29.72
2025-09-22T21:20:19.185828,-8.32,-0.4,-5.56,-0.0,0.04,0.07,29.7
2025-09-22T21:20:19.288338,-8.31,-0.36,-5.58,0.02,0.05,0.03,29.7
2025-09-22T21:20:19.414058,-8.27,-0.28,-5.8,-0.01,0.17,0.11,29.69
2025-09-22T21:20:19.494341,-8.17,-0.18,-5.96,0.02,0.08,0.01,29.71
2025-09-22T21:20:19.596736,-8.22,-0.12,-5.8,0.05,0.03,0.01,29.7
2025-09-22T21:20:19.699290,-8.2,-0.17,-5.8,0.1,-0.02,-0.07,29.72
2025-09-22T21:20:19.802796,-8.25,-0.25,-5.76,0.11,-0.03,-0.09,29.69
2025-09-22T21:20:19.904729,-8.26,-0.39,-5.46,-0.0,-0.03,0.08,29.71
2025-09-22T21:20:20.007662,-8.27,-0.43,-5.63,0.07,-0.02,-0.06,29.71
2025-09-22T21:20:20.110661,-8.31,-0.42,-5.54,0.04,-0.02,-0.03,29.7
2025-09-22T21:20:20.213982,-8.28,-0.41,-5.65,-0.01,0.1,0.11,29.73
2025-09-22T21:20:20.317780,-8.3,-0.39,-5.64,0.03,0.04,0.01,29.7
2025-09-22T21:20:20.419580,-8.33,-0.18,-5.65,0.01,0.08,0.05,29.7
2025-09-22T21:20:20.523264,-8.27,-0.19,-5.69,0.06,0.05,0.02,29.68
2025-09-22T21:20:20.625657,-8.24,-0.24,-5.74,0.08,0.0,-0.03,29.69
2025-09-22T21:20:20.728525,-8.26,-0.31,-5.68,0.1,-0.02,-0.08,29.7
2025-09-22T21:20:20.832318,-8.33,-0.29,-5.68,0.05,0.03,-0.0,29.69
2025-09-22T21:20:20.937106,-8.28,-0.42,-5.65,0.07,0.0,-0.04,29.69
2025-09-22T21:20:21.039304,-8.3,-0.37,-5.62,0.05,0.03,0.0,29.69
2025-09-22T21:20:21.143612,-8.27,-0.38,-5.62,0.04,0.03,-0.0,29.69
2025-09-22T21:20:21.245843,-8.27,-0.38,-5.65,0.03,0.05,0.03,29.7
2025-09-22T21:20:21.347654,-8.3,-0.24,-5.68,0.01,0.06,0.05,29.71
2025-09-22T21:20:21.450663,-8.26,-0.23,-5.73,0.03,0.05,0.03,29.69
2025-09-22T21:20:21.553264,-8.26,-0.24,-5.72,0.06,0.01,-0.03,29.7
2025-09-22T21:20:21.656274,-8.29,-0.24,-5.67,0.08,-0.01,-0.06,29.69
2025-09-22T21:20:21.759390,-8.26,-0.39,-5.63,0.06,0.0,-0.07,29.71
2025-09-22T21:20:21.862201,-8.32,-0.33,-5.62,0.05,0.03,0.01,29.69
2025-09-22T21:20:21.965221,-8.28,-0.37,-5.62,0.05,0.03,-0.01,29.7
2025-09-22T21:20:22.068288,-8.26,-0.37,-5.61,0.04,0.03,0.01,29.7
2025-09-22T21:20:22.170519,-8.3,-0.32,-5.65,0.04,0.04,0.02,29.7
2025-09-22T21:20:22.273488,-8.28,-0.32,-5.66,0.01,0.07,0.06,29.67
2025-09-22T21:20:22.375907,-8.27,-0.26,-5.7,0.03,0.05,0.03,29.7
2025-09-22T21:20:22.479553,-8.29,-0.23,-5.68,0.05,0.03,-0.0,29.69
2025-09-22T21:20:22.583302,-8.26,-0.26,-5.71,0.07,0.0,-0.04,29.7
2025-09-22T21:20:22.686234,-8.29,-0.31,-5.63,0.08,0.01,-0.03,29.71
2025-09-22T21:20:22.788702,-8.28,-0.38,-5.66,0.06,0.01,-0.03,29.7
2025-09-22T21:20:22.891989,-8.29,-0.36,-5.65,0.05,0.03,-0.0,29.69
2025-09-22T21:20:22.994735,-8.3,-0.36,-5.67,0.04,0.03,0.01,29.68
2025-09-22T21:20:23.098208,-8.28,-0.38,-5.64,0.04,0.04,0.02,29.68
2025-09-22T21:20:23.201267,-8.26,-0.34,-5.63,0.02,0.06,0.05,29.69
2025-09-22T21:20:23.303740,-8.28,-0.27,-5.69,0.03,0.05,0.03,29.71
2025-09-22T21:20:23.407709,-8.27,-0.24,-5.71,0.05,0.04,0.01,29.69
2025-09-22T21:20:23.510257,-8.27,-0.28,-5.69,0.06,0.02,-0.02,29.68
2025-09-22T21:20:23.612520,-8.28,-0.31,-5.66,0.08,-0.0,-0.06,29.69
2025-09-22T21:20:23.715792,-8.29,-0.31,-5.65,0.06,0.02,-0.02,29.69
2025-09-22T21:20:23.819227,-8.28,-0.38,-5.64,0.05,0.03,0.0,29.69
2025-09-22T21:20:23.922190,-8.29,-0.35,-5.63,0.05,0.03,-0.0,29.7
2025-09-22T21:20:24.024626,-8.29,-0.3,-5.62,0.05,0.01,-0.04,29.69
2025-09-22T21:20:24.127626,-8.26,-0.36,-5.66,0.02,0.05,0.04,29.69
2025-09-22T21:20:24.230953,-8.24,-0.37,-5.66,0.04,0.03,-0.01,29.69
2025-09-22T21:20:24.333619,-8.29,-0.21,-5.65,0.03,0.05,0.04,29.7
2025-09-22T21:20:24.436488,-8.26,-0.36,-5.68,0.05,0.02,-0.02,29.7
2025-09-22T21:20:24.539552,-8.3,-0.28,-5.67,0.08,-0.01,-0.06,29.69
2025-09-22T21:20:24.642472,-8.25,-0.4,-5.63,0.05,0.04,0.02,29.7
2025-09-22T21:20:24.745620,-8.32,-0.28,-5.62,0.05,0.02,-0.01,29.73
2025-09-22T21:20:24.848754,-8.28,-0.37,-5.66,0.04,0.03,-0.0,29.69
2025-09-22T21:20:24.952733,-8.27,-0.36,-5.67,0.04,0.04,0.01,29.69
2025-09-22T21:20:25.091261,-8.28,-0.3,-5.62,0.04,0.04,0.02,29.69
2025-09-22T21:20:25.199139,-8.25,-0.35,-5.65,0.03,0.04,0.02,29.7
2025-09-22T21:20:25.283895,-8.29,-0.3,-5.68,0.07,-0.0,-0.06,29.69
2025-09-22T21:20:25.373266,-8.3,-0.22,-5.66,0.05,0.04,0.02,29.67
2025-09-22T21:20:25.467748,-8.23,-0.4,-5.65,0.07,0.01,-0.03,29.67
2025-09-22T21:20:25.569051,-8.27,-0.3,-5.62,0.05,0.02,-0.01,29.68
2025-09-22T21:20:25.671763,-8.29,-0.37,-5.67,0.05,0.03,-0.0,29.69
2025-09-22T21:20:25.775611,-8.3,-0.34,-5.63,0.05,0.03,-0.01,29.69
2025-09-22T21:20:25.878457,-8.28,-0.32,-5.61,0.04,0.04,0.02,29.69
2025-09-22T21:20:25.982242,-8.27,-0.37,-5.64,0.04,0.03,0.0,29.67
2025-09-22T21:20:26.085213,-8.31,-0.27,-5.66,0.04,0.03,0.0,29.68
2025-09-22T21:20:26.187667,-8.27,-0.29,-5.66,0.03,0.05,0.04,29.69
2025-09-22T21:20:26.290434,-8.26,-0.35,-5.66,0.06,0.01,-0.03,29.69
2025-09-22T21:20:26.393717,-8.3,-0.26,-5.66,0.06,0.01,-0.03,29.69
2025-09-22T21:20:26.495930,-8.32,-0.32,-5.66,0.05,0.03,0.0,29.7
2025-09-22T21:20:26.599186,-8.28,-0.36,-5.65,0.05,0.02,-0.01,29.68
2025-09-22T21:20:26.702493,-8.29,-0.35,-5.65,0.05,0.03,0.01,29.66
2025-09-22T21:20:26.804474,-8.29,-0.34,-5.66,0.05,0.03,-0.0,29.67
2025-09-22T21:20:26.909690,-8.27,-0.32,-5.66,0.04,0.03,0.0,29.71
2025-09-22T21:20:27.011705,-8.28,-0.32,-5.65,0.03,0.05,0.03,29.68
2025-09-22T21:20:27.115208,-8.26,-0.34,-5.66,0.05,0.03,-0.01,29.67
2025-09-22T21:20:27.217598,-8.31,-0.27,-5.7,0.06,0.02,-0.03,29.68
2025-09-22T21:20:27.320725,-8.3,-0.31,-5.67,0.05,0.03,0.0,29.69
2025-09-22T21:20:27.423669,-8.3,-0.37,-5.68,0.05,0.03,0.01,29.69
2025-09-22T21:20:27.526596,-8.28,-0.34,-5.61,0.05,0.03,-0.01,29.69
2025-09-22T21:20:27.628916,-8.27,-0.31,-5.67,0.04,0.03,0.01,29.69
2025-09-22T21:20:27.732721,-8.31,-0.34,-5.66,0.05,0.03,0.0,29.67
2025-09-22T21:20:27.835439,-8.3,-0.34,-5.61,0.04,0.04,0.02,29.68
2025-09-22T21:20:27.938845,-8.29,-0.32,-5.64,0.04,0.04,0.01,29.69
2025-09-22T21:20:28.041416,-8.28,-0.31,-5.67,0.04,0.03,-0.01,29.69
2025-09-22T21:20:28.147247,-8.3,-0.28,-5.68,0.06,0.02,-0.01,29.68
2025-09-22T21:20:28.248688,-8.27,-0.31,-5.64,0.05,0.03,0.01,29.69
2025-09-22T21:20:28.352223,-8.28,-0.36,-5.66,0.05,0.03,-0.0,29.69
2025-09-22T21:20:28.456914,-8.28,-0.33,-5.64,0.05,0.02,-0.02,29.69
2025-09-22T21:20:28.558754,-8.31,-0.32,-5.64,0.05,0.03,0.0,29.69
2025-09-22T21:20:28.661737,-8.29,-0.38,-5.65,0.05,0.03,0.01,29.68
2025-09-22T21:20:28.775851,-8.28,-0.32,-5.63,0.05,0.02,-0.01,29.7
2025-09-22T21:20:28.869252,-8.28,-0.33,-5.68,0.04,0.04,0.02,29.71
2025-09-22T21:20:28.968638,-8.29,-0.26,-5.6,0.03,0.07,0.06,29.69
2025-09-22T21:20:29.079048,-8.28,-0.36,-5.65,0.05,0.02,-0.03,29.7
2025-09-22T21:20:29.181232,-8.26,-0.32,-5.69,0.06,0.01,-0.04,29.69
2025-09-22T21:20:29.286781,-8.28,-0.32,-5.68,0.05,0.02,-0.01,29.69
2025-09-22T21:20:29.414005,-8.29,-0.35,-5.63,0.05,0.03,0.0,29.67
2025-09-22T21:20:29.488292,-8.28,-0.32,-5.65,0.05,0.03,0.0,29.7
2025-09-22T21:20:29.590775,-8.27,-0.36,-5.65,0.05,0.02,-0.01,29.71
2025-09-22T21:20:29.690739,-8.29,-0.31,-5.65,0.05,0.03,0.0,29.69
2025-09-22T21:20:29.794212,-8.27,-0.34,-5.66,0.03,0.05,0.04,29.69
2025-09-22T21:20:29.898037,-8.26,-0.35,-5.67,0.04,0.04,0.01,29.69
2025-09-22T21:20:30.000181,-8.24,-0.36,-5.68,0.06,0.01,-0.02,29.68
2025-09-22T21:20:30.102657,-8.31,-0.31,-5.68,0.06,0.03,-0.01,29.68
2025-09-22T21:20:30.229393,-8.28,-0.31,-5.65,0.05,0.03,0.01,29.71
2025-09-22T21:20:30.335786,-8.26,-0.35,-5.66,0.04,0.03,0.01,29.69
2025-09-22T21:20:30.435710,-8.28,-0.33,-5.65,0.05,0.03,-0.01,29.68
2025-09-22T21:20:30.513824,-8.3,-0.3,-5.63,0.04,0.03,0.01,29.69
2025-09-22T21:20:30.616632,-8.27,-0.35,-5.66,0.04,0.04,0.01,29.7
2025-09-22T21:20:30.719207,-8.26,-0.32,-5.66,0.04,0.03,-0.0,29.7
2025-09-22T21:20:30.822567,-8.29,-0.32,-5.69,0.05,0.03,-0.01,29.68
2025-09-22T21:20:30.925669,-8.31,-0.29,-5.66,0.05,0.03,0.01,29.68
2025-09-22T21:20:31.028522,-8.29,-0.34,-5.65,0.05,0.03,0.0,29.7
2025-09-22T21:20:31.132183,-8.29,-0.32,-5.66,0.05,0.02,-0.01,29.7
2025-09-22T21:20:31.255770,-8.3,-0.33,-5.66,0.05,0.03,-0.01,29.7
2025-09-22T21:20:31.338638,-8.29,-0.33,-5.67,0.05,0.03,0.01,29.7
2025-09-22T21:20:31.459605,-8.27,-0.32,-5.65,0.04,0.03,0.01,29.68
2025-09-22T21:20:31.543415,-8.28,-0.34,-5.66,0.05,0.03,-0.01,29.7
2025-09-22T21:20:31.646386,-8.3,-0.32,-5.66,0.04,0.03,0.01,29.7
2025-09-22T21:20:31.751329,-8.29,-0.33,-5.65,0.05,0.03,-0.0,29.68
2025-09-22T21:20:31.871325,-8.28,-0.34,-5.64,0.07,-0.0,-0.06,29.69
2025-09-22T21:20:31.974868,-8.28,-0.3,-5.64,0.05,0.03,-0.0,29.69
2025-09-22T21:20:32.059648,-8.28,-0.37,-5.69,0.05,0.03,-0.01,29.7
2025-09-22T21:20:32.162113,-8.31,-0.24,-5.6,0.06,0.01,-0.04,29.71
2025-09-22T21:20:32.265135,-8.24,-0.4,-5.72,0.04,0.05,0.04,29.69
2025-09-22T21:20:32.367649,-8.3,-0.34,-5.63,0.05,0.02,-0.03,29.71
2025-09-22T21:20:32.470607,-8.28,-0.32,-5.62,0.04,0.04,0.02,29.69
2025-09-22T21:20:32.573521,-8.23,-0.35,-5.65,0.05,0.03,0.01,29.71
2025-09-22T21:20:32.676386,-8.29,-0.31,-5.65,0.04,0.04,0.02,29.71
2025-09-22T21:20:32.778891,-8.31,-0.34,-5.67,0.05,0.03,-0.01,29.68
2025-09-22T21:20:32.882612,-8.3,-0.31,-5.64,0.05,0.02,-0.02,29.69
2025-09-22T21:20:32.986151,-8.27,-0.32,-5.64,0.05,0.04,0.01,29.7
2025-09-22T21:20:33.089113,-8.27,-0.33,-5.63,0.05,0.03,-0.01,29.68
2025-09-22T21:20:33.191374,-8.28,-0.34,-5.64,0.05,0.03,-0.01,29.66
2025-09-22T21:20:33.294349,-8.29,-0.32,-5.64,0.05,0.03,0.0,29.69
2025-09-22T21:20:33.397464,-8.3,-0.33,-5.66,0.05,0.03,0.01,29.69
2025-09-22T21:20:33.501109,-8.26,-0.32,-5.66,0.05,0.03,-0.0,29.7
2025-09-22T21:20:33.603599,-8.28,-0.32,-5.66,0.05,0.03,-0.01,29.7
2025-09-22T21:20:33.707107,-8.3,-0.26,-5.64,0.05,0.03,-0.0,29.69
2025-09-22T21:20:33.809302,-8.28,-0.33,-5.66,0.05,0.04,0.01,29.67
2025-09-22T21:20:33.916041,-8.27,-0.37,-5.66,0.05,0.03,-0.01,29.68
2025-09-22T21:20:34.018353,-8.29,-0.29,-5.61,0.05,0.03,-0.01,29.69
2025-09-22T21:20:34.120675,-8.3,-0.36,-5.67,0.05,0.03,0.01,29.67
2025-09-22T21:20:34.223192,-8.29,-0.29,-5.65,0.05,0.03,0.01,29.69
2025-09-22T21:20:34.336051,-8.28,-0.39,-5.63,0.04,0.03,0.01,29.67
2025-09-22T21:20:34.428624,-8.32,-0.27,-5.64,0.06,0.01,-0.03,29.7
2025-09-22T21:20:34.531666,-8.27,-0.4,-5.63,0.05,0.03,0.01,29.7
2025-09-22T21:20:34.635165,-8.3,-0.3,-5.61,0.05,0.03,-0.01,29.7
2025-09-22T21:20:34.738175,-8.29,-0.31,-5.65,0.05,0.03,-0.0,29.67
2025-09-22T21:20:34.851937,-8.27,-0.33,-5.65,0.05,0.03,-0.01,29.67
2025-09-22T21:20:34.943613,-8.29,-0.29,-5.66,0.05,0.04,0.01,29.68
2025-09-22T21:20:35.048556,-8.3,-0.37,-5.65,0.04,0.04,0.01,29.67
2025-09-22T21:20:35.166606,-8.29,-0.29,-5.65,0.05,0.02,-0.02,29.7
2025-09-22T21:20:35.280860,-8.26,-0.33,-5.66,0.04,0.04,0.0,29.67
2025-09-22T21:20:35.365896,-8.29,-0.31,-5.62,0.07,-0.0,-0.04,29.67
2025-09-22T21:20:35.458610,-8.26,-0.3,-5.65,0.04,0.05,0.03,29.7
2025-09-22T21:20:35.565144,-8.27,-0.32,-5.71,0.04,0.03,-0.0,29.69
2025-09-22T21:20:35.664321,-8.28,-0.29,-5.68,0.05,0.02,-0.01,29.69
2025-09-22T21:20:35.767134,-8.29,-0.3,-5.66,0.04,0.04,0.02,29.69
2025-09-22T21:20:35.871252,-8.26,-0.36,-5.65,0.05,0.03,-0.01,29.69
2025-09-22T21:20:35.972533,-8.28,-0.3,-5.63,0.05,0.03,-0.01,29.71
2025-09-22T21:20:36.075562,-8.28,-0.32,-5.67,0.04,0.03,0.01,29.71
2025-09-22T21:20:36.178367,-8.28,-0.33,-5.65,0.05,0.04,0.01,29.7
2025-09-22T21:20:36.282156,-8.28,-0.32,-5.63,0.05,0.03,-0.0,29.69
2025-09-22T21:20:36.405772,-8.31,-0.28,-5.64,0.05,0.02,-0.01,29.68
2025-09-22T21:20:36.505177,-8.27,-0.36,-5.66,0.05,0.03,0.01,29.69
2025-09-22T21:20:36.590342,-8.3,-0.31,-5.63,0.05,0.03,-0.01,29.68
2025-09-22T21:20:36.694073,-8.29,-0.3,-5.65,0.04,0.03,0.01,29.7
2025-09-22T21:20:36.797066,-8.28,-0.34,-5.67,0.05,0.03,-0.01,29.68
2025-09-22T21:20:36.902778,-8.27,-0.26,-5.63,0.05,0.04,0.0,29.7
2025-09-22T21:20:37.003119,-8.28,-0.35,-5.64,0.04,0.04,0.02,29.68
2025-09-22T21:20:37.106093,-8.27,-0.38,-5.68,0.05,0.02,-0.02,29.68
2025-09-22T21:20:37.235363,-8.32,-0.27,-5.65,0.05,0.03,0.01,29.69
2025-09-22T21:20:37.311387,-8.27,-0.33,-5.65,0.05,0.03,0.0,29.69
2025-09-22T21:20:37.415096,-8.27,-0.32,-5.66,0.05,0.03,0.0,29.69
2025-09-22T21:20:37.518632,-8.29,-0.33,-5.66,0.05,0.03,-0.01,29.71
2025-09-22T21:20:37.621064,-8.3,-0.34,-5.64,0.05,0.03,-0.0,29.7
2025-09-22T21:20:37.724128,-8.3,-0.3,-5.65,0.05,0.03,0.01,29.7
2025-09-22T21:20:37.826434,-8.27,-0.32,-5.64,0.05,0.03,0.0,29.69
2025-09-22T21:20:37.930145,-8.29,-0.34,-5.66,0.05,0.03,-0.01,29.68
2025-09-22T21:20:38.034173,-8.31,-0.31,-5.67,0.05,0.03,-0.01,29.69
2025-09-22T21:20:38.136106,-8.29,-0.31,-5.65,0.05,0.03,0.01,29.72
2025-09-22T21:20:38.238501,-8.28,-0.34,-5.65,0.05,0.03,-0.0,29.69
2025-09-22T21:20:38.342065,-8.3,-0.31,-5.67,0.05,0.03,-0.01,29.69
2025-09-22T21:20:38.447221,-8.29,-0.34,-5.64,0.05,0.03,0.0,29.7
2025-09-22T21:20:38.550117,-8.28,-0.33,-5.62,0.05,0.03,0.0,29.7
2025-09-22T21:20:38.652224,-8.26,-0.33,-5.64,0.04,0.03,0.0,29.7
2025-09-22T21:20:38.756583,-8.28,-0.32,-5.66,0.05,0.03,-0.01,29.69
2025-09-22T21:20:38.865844,-8.3,-0.3,-5.67,0.05,0.03,0.01,29.68
2025-09-22T21:20:38.981503,-8.27,-0.32,-5.64,0.05,0.03,0.01,29.69
2025-09-22T21:20:39.063571,-8.29,-0.3,-5.62,0.05,0.03,-0.0,29.68
2025-09-22T21:20:39.191267,-8.31,-0.34,-5.67,0.05,0.03,-0.0,29.7
2025-09-22T21:20:39.269130,-8.29,-0.32,-5.66,0.05,0.03,0.0,29.7
2025-09-22T21:20:39.372058,-8.29,-0.33,-5.64,0.05,0.03,0.0,29.7
2025-09-22T21:20:39.475057,-8.31,-0.33,-5.65,0.05,0.03,-0.01,29.69
2025-09-22T21:20:39.577331,-8.29,-0.35,-5.65,0.05,0.03,-0.01,29.68
2025-09-22T21:20:39.680714,-8.3,-0.32,-5.66,0.05,0.03,0.01,29.69
2025-09-22T21:20:39.797022,-8.27,-0.33,-5.65,0.05,0.03,0.0,29.69
2025-09-22T21:20:39.887049,-8.27,-0.34,-5.65,0.05,0.03,-0.01,29.69
2025-09-22T21:20:40.005379,-8.31,-0.31,-5.64,0.05,0.03,0.0,29.71
2025-09-22T21:20:40.093045,-8.28,-0.33,-5.67,0.05,0.03,0.01,29.7
2025-09-22T21:20:40.196043,-8.27,-0.34,-5.64,0.05,0.03,-0.0,29.71
2025-09-22T21:20:40.299112,-8.29,-0.31,-5.65,0.05,0.03,-0.0,29.69
2025-09-22T21:20:40.402086,-8.3,-0.33,-5.68,0.05,0.03,0.01,29.72
2025-09-22T21:20:40.504322,-8.27,-0.32,-5.65,0.05,0.03,0.0,29.69
2025-09-22T21:20:40.629405,-8.29,-0.31,-5.66,0.05,0.03,-0.0,29.7
2025-09-22T21:20:40.711036,-8.28,-0.31,-5.64,0.05,0.03,-0.0,29.7
2025-09-22T21:20:40.814080,-8.28,-0.32,-5.65,0.05,0.03,0.0,29.69
2025-09-22T21:20:40.918666,-8.26,-0.33,-5.65,0.05,0.03,0.01,29.71
2025-09-22T21:20:41.020036,-8.28,-0.33,-5.66,0.05,0.03,-0.01,29.69
2025-09-22T21:20:41.121261,-8.3,-0.3,-5.65,0.05,0.03,-0.0,29.69
2025-09-22T21:20:41.226087,-8.29,-0.32,-5.66,0.05,0.03,0.01,29.69
2025-09-22T21:20:41.329107,-8.28,-0.33,-5.62,0.05,0.03,-0.0,29.69
2025-09-22T21:20:41.432587,-8.31,-0.32,-5.62,0.05,0.03,-0.0,29.71
2025-09-22T21:20:41.539788,-8.29,-0.34,-5.69,0.05,0.03,0.0,29.69
2025-09-22T21:20:41.638038,-8.28,-0.31,-5.68,0.05,0.03,0.0,29.69
2025-09-22T21:20:41.741046,-8.27,-0.34,-5.64,0.05,0.03,-0.0,29.7
2025-09-22T21:20:41.844029,-8.29,-0.35,-5.63,0.05,0.02,-0.02,29.69
2025-09-22T21:20:41.976456,-8.32,-0.27,-5.66,0.05,0.03,0.01,29.72
2025-09-22T21:20:42.078604,-8.26,-0.36,-5.69,0.05,0.03,0.01,29.7
2025-09-22T21:20:42.178398,-8.29,-0.33,-5.63,0.05,0.02,-0.01,29.7
2025-09-22T21:20:42.285365,-8.31,-0.32,-5.65,0.05,0.03,-0.0,29.69
2025-09-22T21:20:42.380873,-8.29,-0.28,-5.69,0.05,0.03,0.0,29.7
2025-09-22T21:20:42.483701,-8.26,-0.31,-5.65,0.03,0.02,0.03,29.69
2025-09-22T21:20:42.565635,-8.31,-0.33,-5.68,0.05,0.02,-0.02,29.69
2025-09-22T21:20:42.697226,-8.28,-0.3,-5.64,0.05,0.02,-0.01,29.68
2025-09-22T21:20:42.800253,-8.26,-0.35,-5.69,0.05,0.04,0.01,29.69
2025-09-22T21:20:42.903677,-8.28,-0.26,-5.64,0.05,0.03,0.0,29.69
2025-09-22T21:20:43.006488,-8.25,-0.34,-5.63,0.04,0.03,0.0,29.69
2025-09-22T21:20:43.109214,-8.28,-0.33,-5.66,0.04,0.04,0.03,29.68
2025-09-22T21:20:43.211209,-8.3,-0.31,-5.63,0.05,0.03,-0.0,29.69
2025-09-22T21:20:43.285589,-8.28,-0.31,-5.67,0.04,0.03,0.01,29.69
2025-09-22T21:20:43.393322,-8.31,-0.35,-5.69,0.05,0.03,-0.0,29.7
2025-09-22T21:20:43.520495,-8.29,-0.3,-5.64,0.05,0.02,-0.02,29.69
2025-09-22T21:20:43.618827,-8.27,-0.33,-5.67,0.04,0.04,0.03,29.69
2025-09-22T21:20:43.727097,-8.28,-0.31,-5.62,0.05,0.03,-0.0,29.69
2025-09-22T21:20:43.811483,-8.27,-0.3,-5.65,0.05,0.03,-0.0,29.69
2025-09-22T21:20:43.933656,-8.27,-0.31,-5.67,0.05,0.03,0.0,29.69
2025-09-22T21:20:44.016241,-8.29,-0.29,-5.65,0.05,0.03,0.0,29.71
2025-09-22T21:20:44.140313,-8.27,-0.35,-5.68,0.05,0.03,0.01,29.69
2025-09-22T21:20:44.213016,-8.28,-0.34,-5.64,0.05,0.02,-0.01,29.69
2025-09-22T21:20:44.344776,-8.3,-0.31,-5.65,0.05,0.03,0.0,29.7
2025-09-22T21:20:44.436728,-8.28,-0.32,-5.64,0.05,0.03,0.01,29.7
2025-09-22T21:20:44.525629,-8.28,-0.31,-5.63,0.05,0.03,0.0,29.68
2025-09-22T21:20:44.643885,-8.26,-0.33,-5.66,0.05,0.03,-0.0,29.69
2025-09-22T21:20:44.748533,-8.29,-0.31,-5.65,0.05,0.03,-0.01,29.68
2025-09-22T21:20:44.859305,-8.27,-0.31,-5.64,0.05,0.03,0.01,29.7
2025-09-22T21:20:44.934302,-8.26,-0.32,-5.65,0.05,0.03,0.0,29.7
2025-09-22T21:20:45.036292,-8.28,-0.34,-5.66,0.05,0.03,-0.0,29.68
2025-09-22T21:20:45.153594,-8.28,-0.33,-5.66,0.05,0.03,-0.01,29.7
2025-09-22T21:20:45.261958,-8.29,-0.28,-5.64,0.05,0.03,0.01,29.67
2025-09-22T21:20:45.365384,-8.27,-0.34,-5.68,0.04,0.03,0.01,29.69
2025-09-22T21:20:45.460884,-8.29,-0.32,-5.64,0.05,0.03,-0.01,29.68
2025-09-22T21:20:45.570336,-8.28,-0.32,-5.63,0.05,0.03,0.0,29.7
2025-09-22T21:20:45.675262,-8.27,-0.33,-5.67,0.05,0.03,0.01,29.7
2025-09-22T21:20:45.773354,-8.27,-0.34,-5.64,0.05,0.03,-0.0,29.7
2025-09-22T21:20:45.890347,-8.27,-0.33,-5.63,0.05,0.03,-0.0,29.68
2025-09-22T21:20:45.964512,-8.31,-0.33,-5.65,0.05,0.03,0.0,29.71
2025-09-22T21:20:46.085538,-8.28,-0.32,-5.64,0.05,0.03,0.0,29.69
2025-09-22T21:20:46.174262,-8.27,-0.31,-5.66,0.05,0.03,0.0,29.69
2025-09-22T21:20:46.293753,-8.26,-0.33,-5.63,0.05,0.03,0.0,29.71
2025-09-22T21:20:46.391560,-8.28,-0.3,-5.65,0.05,0.03,-0.01,29.69
2025-09-22T21:20:46.495141,-8.29,-0.33,-5.67,0.05,0.03,0.01,29.71
2025-09-22T21:20:46.598136,-8.26,-0.33,-5.66,0.05,0.03,0.0,29.69
2025-09-22T21:20:46.696030,-8.3,-0.29,-5.63,0.05,0.03,0.0,29.69
2025-09-22T21:20:46.807296,-8.29,-0.35,-5.66,0.05,0.03,-0.01,29.69
2025-09-22T21:20:46.914169,-8.31,-0.31,-5.64,0.05,0.03,-0.0,29.72
2025-09-22T21:20:47.008699,-8.28,-0.32,-5.69,0.04,0.03,0.01,29.69
2025-09-22T21:20:47.115962,-8.29,-0.33,-5.65,0.05,0.03,-0.0,29.71
2025-09-22T21:20:47.218805,-8.27,-0.3,-5.64,0.05,0.03,0.0,29.7
2025-09-22T21:20:47.312019,-8.28,-0.33,-5.67,0.05,0.03,-0.0,29.68
2025-09-22T21:20:47.426339,-8.31,-0.3,-5.67,0.05,0.03,0.01,29.69
2025-09-22T21:20:47.529308,-8.29,-0.33,-5.64,0.05,0.03,0.0,29.68
2025-09-22T21:20:47.628724,-8.29,-0.31,-5.64,0.05,0.03,0.0,29.69
2025-09-22T21:20:47.723470,-8.29,-0.34,-5.66,0.05,0.03,-0.0,29.69
2025-09-22T21:20:47.823420,-8.28,-0.31,-5.66,0.05,0.03,-0.0,29.69
2025-09-22T21:20:47.941558,-8.29,-0.33,-5.65,0.05,0.03,0.01,29.69
2025-09-22T21:20:48.048147,-8.29,-0.33,-5.63,0.05,0.03,0.01,29.68
2025-09-22T21:20:48.128532,-8.3,-0.33,-5.64,0.05,0.03,-0.01,29.71
2025-09-22T21:20:48.247708,-8.29,-0.32,-5.64,0.05,0.03,0.0,29.68
2025-09-22T21:20:48.358237,-8.28,-0.33,-5.67,0.05,0.03,0.0,29.69
2025-09-22T21:20:48.461236,-8.29,-0.33,-5.65,0.05,0.03,-0.0,29.69
2025-09-22T21:20:48.563243,-8.31,-0.31,-5.63,0.05,0.03,0.01,29.69
2025-09-22T21:20:48.666170,-8.28,-0.33,-5.66,0.05,0.03,0.01,29.7
2025-09-22T21:20:48.768324,-8.26,-0.32,-5.69,0.05,0.03,-0.01,29.69
2025-09-22T21:20:48.851551,-8.31,-0.29,-5.63,0.05,0.03,-0.01,29.68
2025-09-22T21:20:48.973226,-8.28,-0.31,-5.63,0.05,0.03,0.01,29.67
2025-09-22T21:20:49.077933,-8.28,-0.31,-5.69,0.05,0.03,0.0,29.7
2025-09-22T21:20:49.182567,-8.28,-0.29,-5.65,0.05,0.03,-0.0,29.69
2025-09-22T21:20:49.286933,-8.29,-0.28,-5.65,0.05,0.03,0.01,29.69
2025-09-22T21:20:49.363998,-8.28,-0.34,-5.67,0.05,0.03,0.0,29.69
2025-09-22T21:20:49.469633,-8.31,-0.32,-5.6,0.05,0.03,-0.01,29.7
2025-09-22T21:20:49.592227,-8.3,-0.3,-5.65,0.05,0.03,0.0,29.69
2025-09-22T21:20:49.707089,-8.28,-0.3,-5.66,0.05,0.03,0.01,29.67
2025-09-22T21:20:49.795912,-8.28,-0.33,-5.66,0.05,0.03,0.0,29.7
2025-09-22T21:20:49.903561,-8.27,-0.3,-5.65,0.05,0.03,-0.02,29.7
2025-09-22T21:20:50.009448,-8.27,-0.32,-5.68,0.05,0.03,0.0,29.69
2025-09-22T21:20:50.087966,-8.28,-0.31,-5.68,0.05,0.03,0.01,29.68
2025-09-22T21:20:50.268181,-8.28,-0.34,-5.66,0.05,0.03,0.0,29.68
2025-09-22T21:20:50.341981,-8.29,-0.28,-5.63,0.05,0.03,0.0,29.7
2025-09-22T21:20:50.399165,-8.27,-0.32,-5.67,0.05,0.03,0.0,29.67
2025-09-22T21:20:50.528007,-8.27,-0.33,-5.66,0.05,0.03,-0.01,29.68
2025-09-22T21:20:50.617786,-8.3,-0.29,-5.65,0.05,0.03,-0.0,29.68
2025-09-22T21:20:50.718008,-8.29,-0.33,-5.65,0.05,0.03,0.0,29.7
2025-09-22T21:20:50.813875,-8.28,-0.31,-5.64,0.05,0.03,0.01,29.69
2025-09-22T21:20:50.923103,-8.28,-0.3,-5.65,0.04,0.04,0.01,29.7
2025-09-22T21:20:51.008627,-8.29,-0.35,-5.65,0.05,0.03,-0.0,29.69
2025-09-22T21:20:51.113132,-8.3,-0.29,-5.65,0.05,0.03,-0.0,29.7
2025-09-22T21:20:51.238445,-8.29,-0.32,-5.67,0.05,0.03,0.01,29.69
2025-09-22T21:20:51.326431,-8.28,-0.33,-5.66,0.05,0.03,-0.0,29.68
2025-09-22T21:20:51.442575,-8.3,-0.3,-5.65,0.05,0.03,0.0,29.69
2025-09-22T21:20:51.548468,-8.29,-0.31,-5.64,0.05,0.03,0.0,29.69
2025-09-22T21:20:51.632426,-8.28,-0.32,-5.65,0.05,0.03,-0.0,29.69
2025-09-22T21:20:51.760087,-8.29,-0.34,-5.64,0.05,0.03,-0.01,29.69
2025-09-22T21:20:51.842703,-8.29,-0.3,-5.64,0.05,0.03,0.0,29.7
2025-09-22T21:20:51.949561,-8.3,-0.33,-5.66,0.05,0.03,0.01,29.67
2025-09-22T21:20:52.048959,-8.27,-0.36,-5.67,0.05,0.03,-0.01,29.7
2025-09-22T21:20:52.170885,-8.28,-0.31,-5.62,0.05,0.03,-0.01,29.69
2025-09-22T21:20:52.259034,-8.3,-0.31,-5.67,0.05,0.03,0.0,29.7
2025-09-22T21:20:52.369257,-8.28,-0.34,-5.64,0.05,0.03,-0.0,29.71
2025-09-22T21:20:52.458642,-8.29,-0.28,-5.63,0.05,0.03,0.0,29.71
2025-09-22T21:20:52.564677,-8.29,-0.32,-5.67,0.05,0.03,0.01,29.7
2025-09-22T21:20:52.673253,-8.28,-0.31,-5.64,0.05,0.03,-0.0,29.7
2025-09-22T21:20:52.787513,-8.29,-0.3,-5.61,0.05,0.03,-0.01,29.7
2025-09-22T21:20:52.883982,-8.3,-0.33,-5.64,0.05,0.03,-0.01,29.69
2025-09-22T21:20:52.988242,-8.29,-0.29,-5.65,0.05,0.03,0.01,29.69
2025-09-22T21:20:53.098982,-8.26,-0.33,-5.67,0.05,0.03,0.01,29.69
2025-09-22T21:20:53.202594,-8.28,-0.3,-5.64,0.05,0.03,-0.01,29.7
2025-09-22T21:20:53.288335,-8.28,-0.32,-5.64,0.04,0.03,-0.0,29.68
2025-09-22T21:20:53.402489,-8.29,-0.32,-5.65,0.05,0.03,-0.0,29.68
2025-09-22T21:20:53.508710,-8.28,-0.3,-5.66,0.05,0.03,-0.0,29.7
2025-09-22T21:20:53.612763,-8.29,-0.32,-5.66,0.04,0.03,0.01,29.69
2025-09-22T21:20:53.714965,-8.28,-0.31,-5.66,0.05,0.03,-0.0,29.69
2025-09-22T21:20:53.824621,-8.29,-0.31,-5.67,0.05,0.03,0.0,29.67
2025-09-22T21:20:53.922903,-8.27,-0.35,-5.66,0.05,0.03,-0.0,29.69
2025-09-22T21:20:54.013618,-8.3,-0.32,-5.67,0.05,0.03,-0.01,29.7
2025-09-22T21:20:54.115061,-8.31,-0.29,-5.65,0.05,0.03,0.0,29.68
2025-09-22T21:20:54.216791,-8.29,-0.32,-5.64,0.05,0.03,0.02,29.67
2025-09-22T21:20:54.332720,-8.27,-0.31,-5.65,0.05,0.03,0.01,29.67
2025-09-22T21:20:54.414403,-8.3,-0.31,-5.64,0.05,0.03,-0.0,29.69
2025-09-22T21:20:54.521751,-8.29,-0.33,-5.63,0.05,0.03,-0.0,29.69
2025-09-22T21:20:54.618512,-8.3,-0.32,-5.65,0.05,0.02,-0.0,29.69
2025-09-22T21:20:54.738823,-8.28,-0.31,-5.66,0.05,0.03,0.0,29.68
2025-09-22T21:20:54.847254,-8.29,-0.31,-5.66,0.05,0.03,0.0,29.69
2025-09-22T21:20:54.950118,-8.28,-0.32,-5.62,0.05,0.03,0.0,29.69
2025-09-22T21:20:55.036488,-8.26,-0.33,-5.64,0.05,0.03,-0.0,29.69
2025-09-22T21:20:55.139573,-8.28,-0.29,-5.64,0.05,0.03,0.0,29.69
2025-09-22T21:20:55.248831,-8.29,-0.33,-5.65,0.05,0.03,-0.01,29.7
2025-09-22T21:20:55.362264,-8.28,-0.3,-5.66,0.05,0.03,-0.0,29.68
2025-09-22T21:20:55.453484,-8.3,-0.29,-5.65,0.05,0.03,0.01,29.69
2025-09-22T21:20:55.543927,-8.28,-0.3,-5.64,0.05,0.03,0.01,29.7
2025-09-22T21:20:55.652406,-8.29,-0.29,-5.65,0.05,0.03,0.0,29.68
2025-09-22T21:20:55.759053,-8.28,-0.32,-5.65,0.05,0.03,-0.01,29.68
2025-09-22T21:20:55.882699,-8.31,-0.3,-5.65,0.05,0.02,-0.01,29.68
2025-09-22T21:20:55.978235,-8.29,-0.3,-5.64,0.05,0.03,0.01,29.68
2025-09-22T21:20:56.088679,-8.28,-0.33,-5.66,0.05,0.03,0.0,29.69
2025-09-22T21:20:56.173376,-8.27,-0.33,-5.67,0.05,0.03,-0.0,29.72
2025-09-22T21:20:56.285239,-8.28,-0.29,-5.65,0.05,0.03,-0.0,29.68
2025-09-22T21:20:56.397617,-8.29,-0.31,-5.65,0.05,0.03,0.01,29.68
2025-09-22T21:20:56.489269,-8.26,-0.33,-5.65,0.05,0.03,-0.01,29.68
2025-09-22T21:20:56.593488,-8.27,-0.31,-5.68,0.04,0.03,0.0,29.67
2025-09-22T21:20:56.705752,-8.28,-0.38,-5.61,0.05,0.03,0.0,29.69
2025-09-22T21:20:56.778362,-8.32,-0.26,-5.66,0.05,0.03,0.0,29.69
2025-09-22T21:20:56.893532,-8.26,-0.33,-5.68,0.05,0.03,0.01,29.68
2025-09-22T21:20:57.016224,-8.3,-0.29,-5.65,0.05,0.03,-0.0,29.67
2025-09-22T21:20:57.093831,-8.28,-0.33,-5.67,0.05,0.03,-0.01,29.69
2025-09-22T21:20:57.212457,-8.29,-0.29,-5.63,0.05,0.03,-0.01,29.68
2025-09-22T21:20:57.293189,-8.31,-0.29,-5.63,0.05,0.03,0.01,29.68
2025-09-22T21:20:57.421712,-8.27,-0.31,-5.63,0.05,0.03,0.01,29.68
2025-09-22T21:20:57.529569,-8.28,-0.31,-5.66,0.05,0.03,0.0,29.69
2025-09-22T21:20:57.618336,-8.28,-0.33,-5.66,0.05,0.03,-0.01,29.7
2025-09-22T21:20:57.717765,-8.29,-0.3,-5.64,0.05,0.03,-0.01,29.69
2025-09-22T21:20:57.823405,-8.32,-0.32,-5.66,0.05,0.03,0.0,29.68
2025-09-22T21:20:57.930858,-8.3,-0.3,-5.63,0.05,0.03,0.01,29.68
2025-09-22T21:20:58.042557,-8.28,-0.31,-5.65,0.05,0.03,0.01,29.68
2025-09-22T21:20:58.144663,-8.28,-0.29,-5.64,0.05,0.03,0.0,29.69
2025-09-22T21:20:58.226397,-8.29,-0.31,-5.64,0.05,0.03,-0.01,29.7
2025-09-22T21:20:58.348418,-8.28,-0.31,-5.65,0.05,0.03,-0.0,29.68
2025-09-22T21:20:58.471444,-8.3,-0.31,-5.66,0.05,0.03,0.01,29.66
2025-09-22T21:20:58.548625,-8.28,-0.31,-5.67,0.05,0.03,0.0,29.68
2025-09-22T21:20:58.634394,-8.27,-0.33,-5.66,0.05,0.03,0.0,29.68
2025-09-22T21:20:58.753907,-8.31,-0.3,-5.61,0.05,0.03,0.0,29.69
2025-09-22T21:20:58.868965,-8.27,-0.32,-5.64,0.04,0.03,0.01,29.67
2025-09-22T21:20:58.969022,-8.28,-0.32,-5.65,0.05,0.03,0.0,29.69
2025-09-22T21:20:59.048937,-8.32,-0.31,-5.63,0.05,0.03,-0.0,29.67
2025-09-22T21:20:59.174599,-8.29,-0.34,-5.68,0.05,0.02,-0.02,29.68
2025-09-22T21:20:59.281696,-8.28,-0.3,-5.66,0.05,0.03,-0.01,29.67
2025-09-22T21:20:59.364287,-8.3,-0.32,-5.66,0.04,0.03,0.01,29.68
2025-09-22T21:20:59.480567,-8.26,-0.35,-5.66,0.05,0.03,0.0,29.66
2025-09-22T21:20:59.590136,-8.28,-0.3,-5.64,0.05,0.03,-0.0,29.69
2025-09-22T21:20:59.662540,-8.28,-0.31,-5.65,0.05,0.04,0.0,29.68
2025-09-22T21:20:59.778782,-8.29,-0.34,-5.61,0.04,0.03,0.01,29.67
2025-09-22T21:20:59.873413,-8.3,-0.29,-5.63,0.05,0.02,-0.01,29.68
2025-09-22T21:20:59.993526,-8.3,-0.29,-5.64,0.05,0.03,0.01,29.68
2025-09-22T21:21:00.078904,-8.27,-0.33,-5.66,0.05,0.03,-0.0,29.67
2025-09-22T21:21:00.193614,-8.25,-0.31,-5.67,0.05,0.03,0.0,29.69
2025-09-22T21:21:00.311900,-8.27,-0.34,-5.63,0.05,0.03,-0.01,29.67
2025-09-22T21:21:00.399009,-8.28,-0.31,-5.64,0.05,0.03,-0.0,29.67
2025-09-22T21:21:00.515016,-8.28,-0.31,-5.67,0.05,0.03,0.0,29.66
2025-09-22T21:21:00.596793,-8.28,-0.36,-5.66,0.05,0.03,0.01,29.68
2025-09-22T21:21:00.710331,-8.28,-0.33,-5.64,0.05,0.03,-0.0,29.69
2025-09-22T21:21:00.826069,-8.29,-0.31,-5.64,0.05,0.03,-0.01,29.66
2025-09-22T21:21:00.929024,-8.28,-0.35,-5.67,0.05,0.03,-0.01,29.68
2025-09-22T21:21:01.022165,-8.27,-0.31,-5.67,0.05,0.02,-0.01,29.66
2025-09-22T21:21:01.137967,-8.28,-0.34,-5.65,0.05,0.03,0.01,29.67
2025-09-22T21:21:01.225549,-8.29,-0.29,-5.65,0.05,0.03,0.0,29.68
2025-09-22T21:21:01.332940,-8.29,-0.3,-5.64,0.05,0.03,-0.0,29.67
2025-09-22T21:21:01.413800,-8.27,-0.34,-5.67,0.04,0.04,0.01,29.66
2025-09-22T21:21:01.535774,-8.3,-0.28,-5.64,0.05,0.03,0.0,29.65
2025-09-22T21:21:01.650087,-8.3,-0.28,-5.67,0.05,0.03,0.01,29.68
2025-09-22T21:21:01.733767,-8.28,-0.35,-5.65,0.05,0.03,-0.01,29.68
2025-09-22T21:21:01.872303,-8.29,-0.26,-5.64,0.05,0.03,-0.0,29.67
2025-09-22T21:21:01.944624,-8.3,-0.31,-5.65,0.04,0.03,0.01,29.7
2025-09-22T21:21:02.043117,-8.29,-0.3,-5.67,0.05,0.03,0.0,29.66
2025-09-22T21:21:02.144050,-8.27,-0.34,-5.65,0.05,0.03,0.01,29.66
2025-09-22T21:21:02.270105,-8.3,-0.32,-5.61,0.05,0.03,0.01,29.68
2025-09-22T21:21:02.358689,-8.28,-0.32,-5.68,0.05,0.03,-0.01,29.68
2025-09-22T21:21:02.473536,-8.3,-0.3,-5.66,0.05,0.03,-0.01,29.65
2025-09-22T21:21:02.570244,-8.32,-0.28,-5.67,0.05,0.03,0.0,29.67
2025-09-22T21:21:02.675553,-8.28,-0.31,-5.66,0.05,0.03,0.02,29.66
2025-09-22T21:21:02.753839,-8.27,-0.32,-5.66,0.05,0.03,0.01,29.68
2025-09-22T21:21:02.872901,-8.27,-0.34,-5.65,0.04,0.04,0.0,29.66
2025-09-22T21:21:02.958371,-8.29,-0.31,-5.62,0.05,0.03,-0.01,29.67
2025-09-22T21:21:03.062379,-8.28,-0.31,-5.66,0.05,0.03,0.0,29.69
2025-09-22T21:21:03.164760,-8.29,-0.32,-5.65,0.05,0.03,0.0,29.68
2025-09-22T21:21:03.266643,-8.28,-0.32,-5.66,0.05,0.03,0.0,29.68
2025-09-22T21:21:03.372045,-8.29,-0.31,-5.69,0.04,0.04,0.0,29.69
2025-09-22T21:21:03.473372,-8.3,-0.35,-5.67,0.05,0.03,-0.0,29.67
2025-09-22T21:21:03.578411,-8.31,-0.3,-5.63,0.05,0.03,0.0,29.66
2025-09-22T21:21:03.678697,-8.28,-0.36,-5.65,0.05,0.03,0.0,29.68
2025-09-22T21:21:03.781943,-8.28,-0.31,-5.63,0.05,0.03,-0.01,29.67
2025-09-22T21:21:03.885728,-8.29,-0.36,-5.67,0.04,0.03,-0.0,29.67
2025-09-22T21:21:03.989859,-8.3,-0.34,-5.66,0.05,0.03,-0.01,29.69
2025-09-22T21:21:04.092861,-8.3,-0.29,-5.63,0.05,0.03,0.01,29.67
2025-09-22T21:21:04.195861,-8.26,-0.33,-5.65,0.05,0.03,-0.0,29.66
2025-09-22T21:21:04.298889,-8.29,-0.26,-5.67,0.05,0.03,-0.01,29.68
2025-09-22T21:21:04.401895,-8.25,-0.34,-5.68,0.04,0.03,-0.01,29.68
2025-09-22T21:21:04.504854,-8.3,-0.32,-5.63,0.05,0.02,-0.01,29.66
2025-09-22T21:21:04.607824,-8.32,-0.23,-5.63,0.06,0.02,-0.02,29.67
2025-09-22T21:21:04.711375,-8.28,-0.3,-5.68,0.04,0.04,0.02,29.68
2025-09-22T21:21:04.813272,-8.27,-0.34,-5.67,0.05,0.03,-0.01,29.66
2025-09-22T21:21:04.919421,-8.29,-0.28,-5.63,0.05,0.03,-0.0,29.67
2025-09-22T21:21:05.022871,-8.27,-0.36,-5.68,0.05,0.03,-0.0,29.64
2025-09-22T21:21:05.123379,-8.28,-0.26,-5.68,0.05,0.03,-0.01,29.67
2025-09-22T21:21:07.358209,-8.28,-0.31,-5.64,0.05,0.03,-0.01,29.66
2025-09-22T21:21:07.465894,-8.29,-0.28,-5.62,0.04,0.03,0.01,29.66
2025-09-22T21:21:07.500182,-8.27,-0.35,-5.7,0.05,0.03,-0.0,29.66
2025-09-22T21:21:07.514725,-8.29,-0.28,-5.66,0.05,0.03,-0.0,29.67
2025-09-22T21:21:08.047638,-8.29,-0.29,-5.62,0.04,0.03,0.01,29.67
2025-09-22T21:21:08.048644,-8.3,-0.32,-5.65,0.05,0.03,0.0,29.67
2025-09-22T21:21:08.621150,-8.28,-0.28,-5.64,0.05,0.03,0.0,29.67
2025-09-22T21:21:08.621150,-8.28,-0.35,-5.68,0.05,0.03,-0.0,29.66
2025-09-22T21:21:08.621150,-8.28,-0.32,-5.69,0.05,0.03,-0.01,29.66
2025-09-22T21:21:08.637292,-8.29,-0.29,-5.65,0.05,0.03,0.01,29.65
2025-09-22T21:21:08.637292,-8.27,-0.34,-5.66,0.05,0.03,-0.0,29.67
2025-09-22T21:21:08.638333,-8.28,-0.3,-5.65,0.05,0.03,0.0,29.68
2025-09-22T21:21:08.639894,-8.28,-0.34,-5.67,0.05,0.03,-0.0,29.68
2025-09-22T21:21:08.639894,-8.3,-0.3,-5.66,0.05,0.03,-0.01,29.66
2025-09-22T21:21:08.652253,-8.31,-0.29,-5.67,0.04,0.03,0.01,29.66
2025-09-22T21:21:08.740776,-8.3,-0.33,-5.65,0.05,0.03,0.0,29.67
2025-09-22T21:21:08.846016,-8.28,-0.3,-5.61,0.05,0.03,-0.0,29.69
2025-09-22T21:21:08.933866,-8.27,-0.37,-5.64,0.05,0.03,-0.01,29.68
2025-09-22T21:21:09.040465,-8.27,-0.25,-5.64,0.05,0.02,-0.01,29.66
2025-09-22T21:21:09.141969,-8.28,-0.34,-5.65,0.05,0.03,-0.0,29.67
2025-09-22T21:21:09.244309,-8.32,-0.28,-5.66,0.05,0.03,-0.0,29.67
2025-09-22T21:21:09.354618,-8.29,-0.32,-5.67,0.04,0.04,0.03,29.68
2025-09-22T21:21:09.451834,-8.28,-0.34,-5.67,0.05,0.03,-0.01,29.68
2025-09-22T21:21:09.555573,-8.31,-0.22,-5.61,0.05,0.02,-0.01,29.68
2025-09-22T21:21:09.654922,-8.26,-0.34,-5.68,0.04,0.03,0.01,29.67
2025-09-22T21:21:09.760358,-8.29,-0.32,-5.64,0.05,0.03,-0.01,29.65
2025-09-22T21:21:09.861733,-8.31,-0.28,-5.64,0.05,0.03,0.0,29.68
2025-09-22T21:21:09.965853,-8.28,-0.31,-5.65,0.05,0.03,0.01,29.68
2025-09-22T21:21:10.068808,-8.26,-0.34,-5.67,0.05,0.03,-0.01,29.67
2025-09-22T21:21:10.174500,-8.31,-0.27,-5.61,0.05,0.03,-0.01,29.67
2025-09-22T21:21:10.274802,-8.28,-0.27,-5.64,0.05,0.03,0.01,29.67
2025-09-22T21:21:10.377319,-8.26,-0.34,-5.68,0.05,0.03,0.0,29.66
2025-09-22T21:21:10.493616,-8.29,-0.28,-5.63,0.05,0.03,-0.0,29.66
2025-09-22T21:21:10.596199,-8.28,-0.33,-5.65,0.04,0.03,0.01,29.66
2025-09-22T21:21:10.705993,-8.28,-0.34,-5.68,0.05,0.02,-0.01,29.66
2025-09-22T21:21:10.802884,-8.29,-0.28,-5.63,0.05,0.03,-0.0,29.68
2025-09-22T21:21:10.923035,-8.3,-0.33,-5.62,0.05,0.03,0.0,29.67
2025-09-22T21:21:11.108201,-8.28,-0.3,-5.65,0.05,0.03,0.01,29.68
2025-09-22T21:21:11.108716,-8.25,-0.33,-5.67,0.05,0.03,-0.0,29.69
2025-09-22T21:21:11.215814,-8.29,-0.28,-5.65,0.05,0.03,-0.01,29.66
2025-09-22T21:21:11.325552,-8.29,-0.29,-5.65,0.05,0.03,0.01,29.66
2025-09-22T21:21:11.411478,-8.29,-0.33,-5.65,0.05,0.03,0.0,29.66
2025-09-22T21:21:11.522843,-8.29,-0.28,-5.65,0.05,0.03,0.0,29.67
2025-09-22T21:21:11.616453,-8.27,-0.31,-5.66,0.05,0.03,0.0,29.68
2025-09-22T21:21:11.722754,-8.3,-0.31,-5.67,0.05,0.02,-0.01,29.67
2025-09-22T21:21:11.820309,-8.3,-0.32,-5.65,0.05,0.03,-0.0,29.67
2025-09-22T21:21:11.924868,-8.28,-0.3,-5.66,0.05,0.03,0.0,29.66
2025-09-22T21:21:12.025798,-8.28,-0.32,-5.63,0.05,0.03,0.0,29.66
2025-09-22T21:21:12.131881,-8.27,-0.34,-5.64,0.05,0.03,-0.0,29.67
2025-09-22T21:21:12.232330,-8.31,-0.3,-5.66,0.05,0.03,-0.01,29.65
2025-09-22T21:21:12.343919,-8.29,-0.31,-5.65,0.05,0.03,0.01,29.68
2025-09-22T21:21:12.437813,-8.28,-0.32,-5.65,0.05,0.03,0.0,29.66
2025-09-22T21:21:12.540586,-8.27,-0.3,-5.7,0.05,0.03,-0.0,29.66
2025-09-22T21:21:12.662893,-8.28,-0.31,-5.67,0.05,0.03,-0.0,29.66
2025-09-22T21:21:12.746809,-8.27,-0.33,-5.66,0.05,0.03,-0.01,29.66
2025-09-22T21:21:12.869336,-8.3,-0.33,-5.66,0.05,0.03,0.0,29.66
2025-09-22T21:21:12.956246,-8.28,-0.29,-5.64,0.05,0.03,0.01,29.66
2025-09-22T21:21:13.055795,-8.27,-0.32,-5.66,0.04,0.03,0.01,29.65
2025-09-22T21:21:13.161364,-8.31,-0.32,-5.64,0.05,0.02,-0.01,29.67
2025-09-22T21:21:13.263329,-8.31,-0.28,-5.66,0.05,0.03,-0.0,29.67
2025-09-22T21:21:13.365847,-8.31,-0.33,-5.62,0.05,0.03,0.0,29.67
2025-09-22T21:21:13.472022,-8.3,-0.29,-5.64,0.05,0.03,0.0,29.67
2025-09-22T21:21:13.573224,-8.28,-0.33,-5.64,0.04,0.03,0.0,29.67
2025-09-22T21:21:13.674320,-8.3,-0.31,-5.64,0.05,0.03,-0.01,29.69
2025-09-22T21:21:13.777819,-8.26,-0.29,-5.66,0.05,0.03,0.0,29.67
2025-09-22T21:21:13.879772,-8.3,-0.32,-5.67,0.05,0.03,-0.0,29.66
2025-09-22T21:21:13.984500,-8.28,-0.31,-5.65,0.05,0.03,0.0,29.65
2025-09-22T21:21:14.085782,-8.31,-0.31,-5.64,0.05,0.03,0.01,29.65
2025-09-22T21:21:14.189195,-8.28,-0.33,-5.67,0.05,0.03,-0.01,29.65
2025-09-22T21:21:14.292303,-8.28,-0.32,-5.66,0.05,0.03,-0.0,29.68
2025-09-22T21:21:14.394051,-8.28,-0.31,-5.65,0.05,0.03,-0.0,29.65
2025-09-22T21:21:14.498150,-8.3,-0.3,-5.66,0.05,0.03,0.0,29.67
2025-09-22T21:21:14.602963,-8.29,-0.34,-5.62,0.05,0.03,0.0,29.66
2025-09-22T21:21:14.703775,-8.27,-0.29,-5.65,0.05,0.03,-0.01,29.67
2025-09-22T21:21:14.806758,-8.3,-0.32,-5.65,0.05,0.03,-0.0,29.65
2025-09-22T21:21:14.909284,-8.29,-0.33,-5.68,0.05,0.03,-0.0,29.67
2025-09-22T21:21:15.012757,-8.27,-0.31,-5.66,0.05,0.03,0.0,29.65
2025-09-22T21:21:15.115788,-8.28,-0.3,-5.7,0.05,0.03,0.01,29.65
2025-09-22T21:21:15.220260,-8.29,-0.31,-5.65,0.05,0.03,-0.0,29.67
2025-09-22T21:21:15.321777,-8.29,-0.31,-5.66,0.05,0.03,-0.01,29.67
2025-09-22T21:21:15.425289,-8.28,-0.33,-5.69,0.05,0.03,-0.0,29.65
2025-09-22T21:21:15.531278,-8.29,-0.3,-5.65,0.05,0.03,0.0,29.66
2025-09-22T21:21:15.648079,-8.28,-0.33,-5.64,0.05,0.03,0.0,29.66
2025-09-22T21:21:15.738254,-8.27,-0.32,-5.66,0.05,0.03,0.0,29.64
2025-09-22T21:21:15.838273,-8.27,-0.32,-5.66,0.05,0.03,-0.0,29.66
2025-09-22T21:21:15.956723,-8.28,-0.32,-5.64,0.05,0.03,-0.01,29.65
2025-09-22T21:21:16.072521,-8.31,-0.31,-5.68,0.05,0.03,0.0,29.64
2025-09-22T21:21:16.151873,-8.26,-0.32,-5.66,0.05,0.03,0.0,29.65
2025-09-22T21:21:16.277385,-8.29,-0.3,-5.64,0.05,0.03,0.0,29.63
2025-09-22T21:21:16.353827,-8.27,-0.3,-5.64,0.05,0.03,0.0,29.65
2025-09-22T21:21:16.472902,-8.28,-0.3,-5.66,0.05,0.03,-0.01,29.66
2025-09-22T21:21:16.578501,-8.28,-0.29,-5.66,0.05,0.03,0.0,29.66
2025-09-22T21:21:16.691548,-8.27,-0.31,-5.65,0.05,0.03,0.01,29.64
2025-09-22T21:21:16.770670,-8.29,-0.32,-5.65,0.05,0.03,-0.0,29.67
2025-09-22T21:21:16.887034,-8.29,-0.31,-5.63,0.05,0.03,0.0,29.67
2025-09-22T21:21:16.994061,-8.29,-0.32,-5.65,0.05,0.03,-0.0,29.67
2025-09-22T21:21:17.073249,-8.29,-0.29,-5.62,0.05,0.03,-0.0,29.66
2025-09-22T21:21:17.207755,-8.28,-0.29,-5.64,0.05,0.03,0.01,29.66
2025-09-22T21:21:17.308926,-8.27,-0.32,-5.66,0.05,0.03,0.0,29.67
2025-09-22T21:21:17.385247,-8.3,-0.3,-5.66,0.05,0.03,-0.0,29.67
2025-09-22T21:21:17.498715,-8.27,-0.32,-5.65,0.05,0.03,-0.0,29.69
2025-09-22T21:21:17.608654,-8.29,-0.31,-5.65,0.05,0.03,-0.01,29.66
2025-09-22T21:21:17.713830,-8.29,-0.3,-5.65,0.05,0.03,0.0,29.64
2025-09-22T21:21:17.826024,-8.29,-0.32,-5.65,0.05,0.03,0.01,29.66
2025-09-22T21:21:17.925011,-8.28,-0.31,-5.64,0.05,0.03,-0.0,29.65
2025-09-22T21:21:18.000216,-8.29,-0.32,-5.63,0.05,0.03,-0.0,29.65
2025-09-22T21:21:18.106389,-8.31,-0.32,-5.64,0.05,0.03,-0.0,29.66
2025-09-22T21:21:18.208342,-8.29,-0.32,-5.65,0.05,0.03,0.0,29.67
2025-09-22T21:21:18.334591,-8.27,-0.31,-5.67,0.05,0.03,0.01,29.65
2025-09-22T21:21:18.442861,-8.28,-0.33,-5.64,0.05,0.03,-0.0,29.66
2025-09-22T21:21:18.537565,-8.29,-0.31,-5.66,0.05,0.03,-0.01,29.66
2025-09-22T21:21:18.624282,-8.28,-0.31,-5.65,0.05,0.03,0.0,29.67
2025-09-22T21:21:18.748879,-8.29,-0.32,-5.69,0.05,0.03,0.0,29.67
2025-09-22T21:21:18.825293,-8.29,-0.3,-5.63,0.05,0.03,0.0,29.67
2025-09-22T21:21:18.933946,-8.28,-0.33,-5.65,0.05,0.03,0.0,29.66
2025-09-22T21:21:19.033913,-8.3,-0.31,-5.64,0.05,0.03,-0.01,29.66
2025-09-22T21:21:19.159013,-8.29,-0.32,-5.66,0.05,0.03,-0.0,29.67
2025-09-22T21:21:19.265020,-8.28,-0.28,-5.63,0.05,0.03,0.0,29.67
2025-09-22T21:21:19.350543,-8.29,-0.34,-5.66,0.04,0.03,0.01,29.66
2025-09-22T21:21:19.493523,-8.26,-0.34,-5.66,0.05,0.03,-0.0,29.67
2025-09-22T21:21:19.575516,-8.28,-0.29,-5.65,0.05,0.03,-0.01,29.67
2025-09-22T21:21:19.678597,-8.29,-0.3,-5.67,0.05,0.03,-0.01,29.68
2025-09-22T21:21:19.808325,-8.29,-0.29,-5.66,0.05,0.03,0.0,29.65
2025-09-22T21:21:19.884451,-8.3,-0.32,-5.66,0.05,0.03,0.0,29.68
2025-09-22T21:21:19.997307,-8.27,-0.3,-5.64,0.05,0.03,-0.0,29.67
2025-09-22T21:21:20.085064,-8.28,-0.3,-5.64,0.05,0.03,0.0,29.66
2025-09-22T21:21:20.200460,-8.28,-0.34,-5.65,0.05,0.03,-0.01,29.65
2025-09-22T21:21:20.304244,-8.29,-0.35,-5.64,0.05,0.02,-0.01,29.67
2025-09-22T21:21:20.386339,-8.29,-0.25,-5.63,0.05,0.03,0.01,29.65
2025-09-22T21:21:20.493240,-8.25,-0.32,-5.65,0.04,0.03,0.01,29.67
2025-09-22T21:21:20.620420,-8.27,-0.34,-5.65,0.05,0.03,-0.01,29.67
2025-09-22T21:21:20.694971,-8.31,-0.25,-5.66,0.05,0.03,0.0,29.67
2025-09-22T21:21:20.810353,-8.29,-0.36,-5.66,0.05,0.03,0.0,29.65
2025-09-22T21:21:20.893862,-8.29,-0.28,-5.66,0.05,0.03,-0.0,29.66
2025-09-22T21:21:21.012571,-8.29,-0.3,-5.65,0.05,0.03,0.01,29.66
2025-09-22T21:21:21.088027,-8.27,-0.34,-5.67,0.05,0.03,0.0,29.66
2025-09-22T21:21:21.213963,-8.31,-0.3,-5.66,0.05,0.03,-0.01,29.67
2025-09-22T21:21:21.327831,-8.29,-0.32,-5.66,0.05,0.03,0.0,29.66
2025-09-22T21:21:21.430387,-8.28,-0.35,-5.67,0.05,0.03,0.01,29.65
2025-09-22T21:21:21.536027,-8.29,-0.32,-5.64,0.05,0.03,-0.01,29.66
2025-09-22T21:21:21.619129,-8.29,-0.29,-5.62,0.05,0.03,0.01,29.66
2025-09-22T21:21:21.711236,-8.25,-0.34,-5.67,0.05,0.03,-0.0,29.67
2025-09-22T21:21:21.840409,-8.26,-0.3,-5.65,0.05,0.03,-0.01,29.67
2025-09-22T21:21:21.914978,-8.29,-0.31,-5.67,0.05,0.03,-0.0,29.66
2025-09-22T21:21:22.025782,-8.28,-0.33,-5.67,0.05,0.03,0.0,29.67
2025-09-22T21:21:22.149185,-8.27,-0.29,-5.63,0.05,0.03,0.0,29.65
2025-09-22T21:21:22.251517,-8.28,-0.33,-5.61,0.05,0.03,-0.0,29.65
2025-09-22T21:21:22.333643,-8.29,-0.33,-5.67,0.05,0.02,-0.01,29.66
2025-09-22T21:21:22.445282,-8.28,-0.28,-5.64,0.05,0.03,-0.0,29.65
2025-09-22T21:21:22.557986,-8.28,-0.32,-5.68,0.05,0.03,0.01,29.67
2025-09-22T21:21:22.638175,-8.31,-0.31,-5.66,0.05,0.03,-0.0,29.66
2025-09-22T21:21:22.745490,-8.29,-0.27,-5.64,0.05,0.03,0.01,29.67
2025-09-22T21:21:22.870422,-8.3,-0.3,-5.69,0.05,0.03,0.01,29.64
2025-09-22T21:21:22.973133,-8.28,-0.33,-5.68,0.05,0.03,-0.01,29.66
2025-09-22T21:21:23.052444,-8.3,-0.28,-5.61,0.05,0.03,-0.01,29.67
2025-09-22T21:21:23.177793,-8.28,-0.34,-5.65,0.05,0.03,0.01,29.66
2025-09-22T21:21:23.281933,-8.27,-0.31,-5.65,0.05,0.03,0.01,29.65
2025-09-22T21:21:23.358637,-8.29,-0.27,-5.64,0.05,0.03,0.0,29.67
2025-09-22T21:21:23.478371,-8.28,-0.31,-5.66,0.05,0.03,-0.0,29.67
2025-09-22T21:21:23.581460,-8.3,-0.32,-5.67,0.05,0.03,-0.01,29.66
2025-09-22T21:21:23.663289,-8.3,-0.3,-5.66,0.05,0.03,0.01,29.66
2025-09-22T21:21:23.778412,-8.29,-0.3,-5.67,0.05,0.03,0.01,29.68
2025-09-22T21:21:23.894104,-8.29,-0.31,-5.69,0.05,0.03,0.0,29.66
2025-09-22T21:21:23.978513,-8.27,-0.31,-5.65,0.05,0.03,-0.01,29.66
2025-09-22T21:21:24.092493,-8.28,-0.3,-5.66,0.05,0.03,-0.0,29.67
2025-09-22T21:21:24.208660,-8.28,-0.29,-5.66,0.05,0.03,0.0,29.66
2025-09-22T21:21:24.296077,-8.28,-0.29,-5.66,0.05,0.03,0.0,29.67
2025-09-22T21:21:24.416017,-8.29,-0.3,-5.66,0.05,0.03,0.0,29.67
2025-09-22T21:21:24.518412,-8.29,-0.3,-5.66,0.05,0.03,-0.0,29.65
2025-09-22T21:21:24.599333,-8.3,-0.29,-5.65,0.05,0.03,-0.0,29.66
2025-09-22T21:21:24.712533,-8.28,-0.32,-5.67,0.05,0.03,0.0,29.66
2025-09-22T21:21:24.827080,-8.28,-0.3,-5.63,0.05,0.03,-0.0,29.67
2025-09-22T21:21:24.918563,-8.29,-0.3,-5.65,0.05,0.03,-0.0,29.68
2025-09-22T21:21:25.032960,-8.3,-0.3,-5.68,0.05,0.03,0.01,29.66
2025-09-22T21:21:25.119162,-8.28,-0.31,-5.65,0.05,0.03,0.01,29.66
2025-09-22T21:21:25.233955,-8.28,-0.33,-5.66,0.05,0.03,0.0,29.68
2025-09-22T21:21:25.322891,-8.27,-0.35,-5.65,0.05,0.03,-0.01,29.66
2025-09-22T21:21:25.423626,-8.29,-0.29,-5.64,0.05,0.03,-0.01,29.65
2025-09-22T21:21:25.541723,-8.31,-0.3,-5.66,0.05,0.03,0.0,29.65
2025-09-22T21:21:25.648337,-8.28,-0.35,-5.66,0.05,0.03,0.01,29.66
2025-09-22T21:21:25.738329,-8.28,-0.3,-5.66,0.05,0.03,-0.0,29.65
2025-09-22T21:21:25.850501,-8.27,-0.31,-5.65,0.04,0.03,0.01,29.64
2025-09-22T21:21:25.935186,-8.29,-0.36,-5.66,0.05,0.03,-0.01,29.66
2025-09-22T21:21:26.057241,-8.31,-0.26,-5.64,0.05,0.03,-0.0,29.65
2025-09-22T21:21:26.167087,-8.29,-0.31,-5.69,0.05,0.03,0.01,29.66
2025-09-22T21:21:26.252921,-8.28,-0.34,-5.68,0.05,0.03,-0.0,29.66
2025-09-22T21:21:26.361514,-8.3,-0.28,-5.63,0.04,0.04,0.01,29.67
2025-09-22T21:21:26.473781,-8.28,-0.33,-5.65,0.04,0.03,0.0,29.65
2025-09-22T21:21:26.558192,-8.28,-0.3,-5.65,0.05,0.03,-0.0,29.64
2025-09-22T21:21:26.665981,-8.29,-0.29,-5.66,0.05,0.03,0.01,29.66
2025-09-22T21:21:26.785851,-8.28,-0.34,-5.65,0.05,0.03,-0.0,29.65
2025-09-22T21:21:26.882298,-8.3,-0.31,-5.66,0.05,0.03,-0.0,29.64
2025-09-22T21:21:26.985854,-8.28,-0.33,-5.67,0.04,0.03,0.0,29.64
2025-09-22T21:21:27.077058,-8.29,-0.31,-5.65,0.05,0.03,-0.0,29.64
2025-09-22T21:21:27.171224,-8.28,-0.32,-5.64,0.05,0.03,0.01,29.65
2025-09-22T21:21:27.298997,-8.26,-0.32,-5.65,0.05,0.03,-0.0,29.65
2025-09-22T21:21:27.389017,-8.26,-0.31,-5.65,0.05,0.03,-0.01,29.65
2025-09-22T21:21:27.504204,-8.27,-0.3,-5.65,0.05,0.03,-0.0,29.63
2025-09-22T21:21:27.589655,-8.28,-0.31,-5.65,0.05,0.03,-0.0,29.66
2025-09-22T21:21:27.684868,-8.29,-0.29,-5.65,0.05,0.03,0.01,29.64
2025-09-22T21:21:27.812943,-8.26,-0.33,-5.64,0.05,0.03,0.01,29.65
2025-09-22T21:21:27.915503,-8.27,-0.32,-5.66,0.05,0.03,0.0,29.65
2025-09-22T21:21:27.993295,-8.3,-0.3,-5.62,0.05,0.03,0.0,29.65
2025-09-22T21:21:28.113774,-8.28,-0.34,-5.66,0.05,0.03,-0.01,29.64
2025-09-22T21:21:28.228624,-8.3,-0.29,-5.66,0.05,0.03,-0.01,29.64
2025-09-22T21:21:28.313994,-8.29,-0.29,-5.66,0.05,0.03,0.0,29.67
2025-09-22T21:21:28.430718,-8.27,-0.32,-5.66,0.05,0.03,0.0,29.63
2025-09-22T21:21:28.523288,-8.32,-0.29,-5.63,0.05,0.03,-0.0,29.64
2025-09-22T21:21:28.613093,-8.28,-0.34,-5.64,0.05,0.03,0.0,29.64
2025-09-22T21:21:28.739129,-8.29,-0.32,-5.64,0.05,0.02,-0.0,29.65
2025-09-22T21:21:28.814647,-8.29,-0.3,-5.66,0.05,0.02,0.0,29.66
2025-09-22T21:21:28.933881,-8.27,-0.31,-5.67,0.05,0.03,-0.0,29.66
2025-09-22T21:21:29.052307,-8.27,-0.28,-5.65,0.05,0.03,0.0,29.65
2025-09-22T21:21:29.143362,-8.29,-0.32,-5.65,0.05,0.03,0.01,29.64
2025-09-22T21:21:29.239034,-8.28,-0.32,-5.68,0.05,0.03,-0.01,29.64
2025-09-22T21:21:29.334731,-8.28,-0.29,-5.66,0.05,0.03,-0.0,29.65
2025-09-22T21:21:29.442571,-8.25,-0.34,-5.68,0.05,0.03,-0.01,29.64
2025-09-22T21:21:29.558634,-8.29,-0.31,-5.64,0.05,0.03,-0.01,29.64
2025-09-22T21:21:29.670129,-8.3,-0.29,-5.67,0.04,0.03,-0.0,29.65
2025-09-22T21:21:29.758602,-8.29,-0.3,-5.65,0.05,0.03,-0.01,29.65
2025-09-22T21:21:29.875580,-8.29,-0.28,-5.62,0.05,0.03,-0.01,29.64
2025-09-22T21:21:29.949197,-8.29,-0.3,-5.65,0.04,0.03,0.0,29.65
2025-09-22T21:21:30.073366,-8.3,-0.3,-5.67,0.04,0.03,-0.0,29.64
2025-09-22T21:21:30.159091,-8.29,-0.32,-5.67,0.04,0.03,-0.0,29.65
2025-09-22T21:21:30.263380,-8.29,-0.31,-5.64,0.04,0.03,-0.0,29.63
2025-09-22T21:21:30.376453,-8.3,-0.28,-5.67,0.05,0.03,-0.01,29.67
2025-09-22T21:21:30.494025,-8.3,-0.3,-5.65,0.05,0.03,-0.0,29.65
2025-09-22T21:21:30.580100,-8.29,-0.28,-5.65,0.05,0.03,0.0,29.64
2025-09-22T21:21:30.702785,-8.28,-0.29,-5.62,0.05,0.03,0.0,29.66
2025-09-22T21:21:30.805097,-8.3,-0.29,-5.67,0.05,0.03,0.0,29.63
2025-09-22T21:21:30.878552,-8.28,-0.3,-5.64,0.05,0.03,0.01,29.67
2025-09-22T21:21:30.995275,-8.31,-0.3,-5.65,0.05,0.03,0.0,29.64
2025-09-22T21:21:31.109289,-8.31,-0.29,-5.64,0.05,0.02,-0.0,29.66
2025-09-22T21:21:31.194077,-8.29,-0.3,-5.64,0.05,0.03,0.0,29.65
2025-09-22T21:21:31.314149,-8.28,-0.32,-5.65,0.05,0.02,-0.0,29.65
2025-09-22T21:21:31.393543,-8.3,-0.29,-5.66,0.05,0.03,0.0,29.65
2025-09-22T21:21:31.514513,-8.29,-0.31,-5.68,0.05,0.03,0.01,29.63
2025-09-22T21:21:31.637808,-8.28,-0.31,-5.64,0.05,0.03,0.0,29.63
2025-09-22T21:21:31.727887,-8.3,-0.3,-5.67,0.05,0.03,0.01,29.64
2025-09-22T21:21:31.836366,-8.28,-0.31,-5.67,0.05,0.03,0.01,29.66
2025-09-22T21:21:31.918660,-8.27,-0.3,-5.67,0.05,0.03,0.01,29.67
2025-09-22T21:21:32.089481,-8.28,-0.32,-5.65,0.05,0.03,0.01,29.65
2025-09-22T21:21:32.138235,-8.28,-0.34,-5.61,0.05,0.03,-0.0,29.66
2025-09-22T21:21:32.301832,-8.26,-0.33,-5.66,0.05,0.03,-0.0,29.64
2025-09-22T21:21:32.338241,-8.27,-0.31,-5.67,0.05,0.03,-0.01,29.63
2025-09-22T21:21:32.454181,-8.28,-0.3,-5.65,0.05,0.03,-0.0,29.64
2025-09-22T21:21:32.540149,-8.27,-0.29,-5.66,0.05,0.03,-0.0,29.63
2025-09-22T21:21:32.653859,-8.28,-0.31,-5.67,0.05,0.03,-0.01,29.64
2025-09-22T21:21:32.761573,-8.27,-0.29,-5.7,0.05,0.03,-0.01,29.64
2025-09-22T21:21:32.838189,-8.28,-0.29,-5.65,0.04,0.03,-0.0,29.66
2025-09-22T21:21:32.937560,-8.3,-0.31,-5.65,0.05,0.03,-0.01,29.64
2025-09-22T21:21:33.038280,-8.29,-0.29,-5.66,0.04,0.03,-0.0,29.64
2025-09-22T21:21:33.141155,-8.28,-0.31,-5.66,0.04,0.03,0.0,29.64
2025-09-22T21:21:33.244170,-8.29,-0.29,-5.66,0.05,0.03,0.0,29.64
2025-09-22T21:21:33.347156,-8.3,-0.29,-5.65,0.05,0.03,0.01,29.64
2025-09-22T21:21:33.453631,-8.26,-0.3,-5.67,0.05,0.03,0.01,29.64
2025-09-22T21:21:33.553410,-8.28,-0.31,-5.63,0.05,0.03,0.01,29.63
2025-09-22T21:21:33.664965,-8.26,-0.3,-5.64,0.05,0.03,0.01,29.64
2025-09-22T21:21:33.759332,-8.27,-0.3,-5.66,0.05,0.03,-0.0,29.62
2025-09-22T21:21:33.862094,-8.27,-0.32,-5.67,0.05,0.03,0.0,29.65
2025-09-22T21:21:33.994817,-8.26,-0.33,-5.66,0.05,0.03,-0.0,29.65
2025-09-22T21:21:34.074966,-8.3,-0.29,-5.65,0.05,0.03,-0.01,29.64
2025-09-22T21:21:34.194117,-8.29,-0.29,-5.65,0.04,0.04,0.01,29.65
2025-09-22T21:21:34.278543,-8.28,-0.34,-5.67,0.04,0.03,0.0,29.65
2025-09-22T21:21:34.405786,-8.3,-0.27,-5.64,0.05,0.03,-0.0,29.66
2025-09-22T21:21:34.509303,-8.3,-0.32,-5.62,0.04,0.03,0.01,29.64
2025-09-22T21:21:34.619326,-8.29,-0.29,-5.64,0.05,0.03,-0.0,29.64
2025-09-22T21:21:34.693569,-8.29,-0.3,-5.65,0.05,0.03,0.0,29.63
2025-09-22T21:21:34.827065,-8.28,-0.37,-5.67,0.05,0.03,0.0,29.62
2025-09-22T21:21:34.920384,-8.29,-0.26,-5.63,0.05,0.03,-0.0,29.64
2025-09-22T21:21:35.027883,-8.3,-0.31,-5.65,0.04,0.04,0.01,29.64
2025-09-22T21:21:35.123806,-8.29,-0.33,-5.67,0.05,0.03,-0.01,29.64
2025-09-22T21:21:35.237497,-8.29,-0.29,-5.62,0.05,0.03,-0.01,29.63
2025-09-22T21:21:35.314594,-8.28,-0.31,-5.65,0.04,0.03,0.01,29.65
2025-09-22T21:21:35.423923,-8.28,-0.3,-5.64,0.05,0.03,-0.01,29.63
2025-09-22T21:21:35.538971,-8.29,-0.29,-5.66,0.05,0.03,0.0,29.64
2025-09-22T21:21:35.660326,-8.3,-0.3,-5.65,0.05,0.03,0.0,29.64
2025-09-22T21:21:35.747420,-8.3,-0.3,-5.65,0.05,0.03,0.01,29.64
2025-09-22T21:21:35.833482,-8.25,-0.33,-5.66,0.05,0.03,0.01,29.63
2025-09-22T21:21:35.952678,-8.31,-0.31,-5.63,0.05,0.03,0.0,29.62
2025-09-22T21:21:36.033664,-8.26,-0.34,-5.66,0.05,0.03,0.0,29.64
2025-09-22T21:21:36.153311,-8.27,-0.31,-5.69,0.05,0.03,-0.01,29.64
2025-09-22T21:21:36.258596,-8.28,-0.28,-5.66,0.04,0.03,-0.0,29.63
2025-09-22T21:21:36.364963,-8.28,-0.32,-5.65,0.05,0.03,-0.01,29.64
2025-09-22T21:21:36.470197,-8.29,-0.29,-5.62,0.05,0.03,-0.0,29.63
2025-09-22T21:21:36.554050,-8.29,-0.27,-5.64,0.05,0.03,0.01,29.64
2025-09-22T21:21:36.674390,-8.28,-0.32,-5.67,0.05,0.03,0.01,29.65
2025-09-22T21:21:36.759533,-8.29,-0.29,-5.66,0.05,0.03,0.01,29.64
2025-09-22T21:21:36.873622,-8.27,-0.33,-5.66,0.05,0.03,0.0,29.63
2025-09-22T21:21:36.959575,-8.27,-0.34,-5.65,0.05,0.03,-0.02,29.63
2025-09-22T21:21:37.073256,-8.28,-0.27,-5.64,0.04,0.03,-0.0,29.65
2025-09-22T21:21:37.189512,-8.29,-0.36,-5.63,0.05,0.02,-0.01,29.64
2025-09-22T21:21:37.288368,-8.32,-0.23,-5.65,0.05,0.03,-0.0,29.63
2025-09-22T21:21:37.372240,-8.28,-0.3,-5.66,0.05,0.03,0.01,29.62
2025-09-22T21:21:37.486130,-8.28,-0.32,-5.66,0.05,0.03,0.01,29.65
2025-09-22T21:21:37.593286,-8.29,-0.29,-5.67,0.05,0.03,0.01,29.64
2025-09-22T21:21:37.678512,-8.26,-0.32,-5.66,0.05,0.03,0.0,29.63
2025-09-22T21:21:37.794722,-8.27,-0.31,-5.67,0.05,0.03,-0.01,29.62
2025-09-22T21:21:37.942025,-8.27,-0.3,-5.64,0.05,0.03,-0.01,29.64
2025-09-22T21:21:38.053181,-8.3,-0.32,-5.68,0.04,0.03,-0.0,29.63
2025-09-22T21:21:38.115543,-8.31,-0.27,-5.68,0.05,0.03,-0.0,29.64
2025-09-22T21:21:38.203848,-8.29,-0.3,-5.66,0.05,0.03,0.01,29.64
2025-09-22T21:21:38.318739,-8.29,-0.31,-5.66,0.05,0.03,0.01,29.63
2025-09-22T21:21:38.425337,-8.29,-0.3,-5.65,0.05,0.03,0.01,29.63
2025-09-22T21:21:38.522801,-8.27,-0.32,-5.67,0.05,0.03,0.01,29.64
2025-09-22T21:21:38.633095,-8.28,-0.34,-5.65,0.05,0.03,-0.01,29.65
2025-09-22T21:21:38.712480,-8.27,-0.31,-5.66,0.05,0.03,-0.0,29.64
2025-09-22T21:21:38.824481,-8.29,-0.31,-5.68,0.05,0.03,-0.01,29.64
2025-09-22T21:21:38.920498,-8.28,-0.3,-5.64,0.05,0.03,-0.0,29.63
2025-09-22T21:21:39.033135,-8.29,-0.29,-5.65,0.05,0.03,0.0,29.63
2025-09-22T21:21:39.145009,-8.28,-0.32,-5.65,0.05,0.03,0.01,29.62
2025-09-22T21:21:39.256769,-8.28,-0.31,-5.64,0.05,0.03,0.0,29.64
2025-09-22T21:21:39.333816,-8.27,-0.31,-5.62,0.05,0.03,0.0,29.63
2025-09-22T21:21:39.443033,-8.28,-0.32,-5.66,0.05,0.03,0.0,29.63
2025-09-22T21:21:39.529915,-8.27,-0.34,-5.67,0.05,0.03,-0.0,29.64
2025-09-22T21:21:39.639181,-8.27,-0.28,-5.63,0.05,0.03,-0.0,29.63
2025-09-22T21:21:39.738122,-8.29,-0.32,-5.69,0.05,0.03,0.0,29.64
2025-09-22T21:21:39.857700,-8.26,-0.31,-5.65,0.05,0.02,-0.0,29.64
2025-09-22T21:21:39.943630,-9.81,1.76,-1.72,2.07,-2.71,-4.02,29.63
2025-09-22T21:21:40.041964,-7.49,-4.51,-2.83,-0.01,0.99,-1.62,29.62
2025-09-22T21:21:40.169034,-4.98,-8.64,-1.62,0.24,0.29,-0.37,29.63
2025-09-22T21:21:40.258234,-3.8,-9.19,-1.11,1.6,2.26,-0.77,29.64
2025-09-22T21:21:40.385160,1.29,-9.42,-3.0,1.21,-2.18,-3.33,29.63
2025-09-22T21:21:40.454590,-3.92,-9.33,-0.11,0.03,-0.19,0.01,29.62
2025-09-22T21:21:40.563087,-3.25,-9.04,-0.45,0.17,0.02,-0.35,29.62
2025-09-22T21:21:40.687038,-3.06,-9.53,-0.53,0.19,0.04,0.03,29.64
2025-09-22T21:21:40.772996,-2.85,-9.14,-0.26,0.2,-0.05,-0.24,29.64
2025-09-22T21:21:40.897605,-2.97,-9.31,-0.08,0.19,0.05,0.16,29.64
2025-09-22T21:21:40.971034,-2.65,-8.31,0.22,-0.14,0.15,0.02,29.62
2025-09-22T21:21:41.073522,-2.83,-8.22,-0.19,-0.07,0.72,0.13,29.63
2025-09-22T21:21:41.176918,-6.25,-7.46,-3.81,-0.32,0.26,1.73,29.62
2025-09-22T21:21:41.279919,3.8,-10.13,2.53,-0.93,1.68,5.11,29.64
2025-09-22T21:21:41.383016,-7.58,-4.21,-4.2,-0.53,0.03,2.16,29.63
2025-09-22T21:21:41.487433,-8.58,-2.75,-4.06,-0.24,-0.35,2.02,29.62
2025-09-22T21:21:41.589200,-8.3,-1.36,-5.29,-0.17,0.04,0.0,29.64
2025-09-22T21:21:41.691983,-8.3,-1.15,-5.48,-0.44,0.01,-0.0,29.63
2025-09-22T21:21:41.794343,-8.31,-0.94,-5.46,-0.59,0.01,0.01,29.63
2025-09-22T21:21:41.897591,-8.34,-0.69,-5.52,-0.32,-0.01,0.03,29.63
2025-09-22T21:21:41.998815,-8.39,-0.58,-5.51,-0.13,-0.06,0.01,29.63
2025-09-22T21:21:42.103900,-8.38,-0.5,-5.49,-0.08,0.04,0.06,29.63
2025-09-22T21:21:42.206934,-8.42,-0.51,-5.37,0.04,0.03,0.01,29.64
2025-09-22T21:21:42.309896,-8.43,-0.5,-5.33,0.07,-0.01,0.0,29.62
2025-09-22T21:21:42.413003,-8.44,-0.55,-5.27,0.05,0.01,0.01,29.64
2025-09-22T21:21:42.520617,-8.42,-0.53,-5.29,0.01,0.07,0.01,29.64
2025-09-22T21:21:42.619435,-8.38,-0.52,-5.34,0.0,0.07,0.04,29.64
2025-09-22T21:21:42.721281,-8.41,-0.48,-5.37,0.03,0.05,0.03,29.64
2025-09-22T21:21:42.824334,-8.4,-0.4,-5.4,0.04,0.04,0.02,29.64
2025-09-22T21:21:42.928412,-8.41,-0.4,-5.38,0.05,0.02,-0.0,29.62
2025-09-22T21:21:43.030573,-8.42,-0.46,-5.4,0.09,-0.02,-0.07,29.63
2025-09-22T21:21:43.134449,-8.37,-0.52,-5.35,0.09,-0.0,-0.03,29.63
2025-09-22T21:21:43.252956,-8.43,-0.53,-5.33,0.06,0.02,0.0,29.64
2025-09-22T21:21:43.339891,-8.43,-0.52,-5.34,0.05,0.02,0.0,29.64
2025-09-22T21:21:43.478720,-8.45,-0.51,-5.29,0.03,0.03,0.0,29.64
2025-09-22T21:21:43.558306,-8.41,-0.51,-5.36,0.02,0.05,0.0,29.64
2025-09-22T21:21:43.650678,-8.43,-0.44,-5.37,0.03,0.04,0.02,29.64
2025-09-22T21:21:43.754062,-8.42,-0.41,-5.38,0.03,0.04,0.02,29.64
2025-09-22T21:21:43.858958,-8.4,-0.45,-5.41,0.06,0.01,-0.02,29.64
2025-09-22T21:21:43.959410,-8.41,-0.41,-5.39,0.07,0.01,-0.03,29.64
2025-09-22T21:21:44.064489,-8.41,-0.5,-5.33,0.07,0.01,-0.03,29.64
2025-09-22T21:21:44.358127,-8.4,-0.5,-5.35,0.06,0.02,-0.0,29.62
2025-09-22T21:21:44.358127,-8.43,-0.48,-5.33,0.05,0.03,0.0,29.64
2025-09-22T21:21:44.376437,-8.43,-0.52,-5.29,0.04,0.03,-0.0,29.65
2025-09-22T21:21:44.485821,-8.44,-0.46,-5.34,0.03,0.05,0.01,29.63
2025-09-22T21:21:44.582421,-8.42,-0.49,-5.39,0.02,0.06,0.04,29.64
2025-09-22T21:21:44.703598,-8.4,-0.46,-5.4,0.04,0.04,0.01,29.64
2025-09-22T21:21:44.782938,-8.41,-0.41,-5.41,0.05,0.03,-0.01,29.62
2025-09-22T21:21:44.886403,-8.42,-0.43,-5.38,0.06,0.02,-0.02,29.64
2025-09-22T21:21:45.008727,-8.41,-0.49,-5.36,0.07,0.01,-0.03,29.63
2025-09-22T21:21:45.093479,-8.42,-0.51,-5.38,0.06,0.02,-0.0,29.64
2025-09-22T21:21:45.218067,-8.42,-0.5,-5.33,0.06,0.03,-0.0,29.63
2025-09-22T21:21:45.327711,-8.41,-0.49,-5.35,0.04,0.03,-0.0,29.62
2025-09-22T21:21:45.466569,-8.42,-0.52,-5.35,0.03,0.04,0.0,29.64
2025-09-22T21:21:45.544367,-8.42,-0.42,-5.37,0.03,0.06,0.04,29.64
2025-09-22T21:21:45.621921,-8.42,-0.45,-5.37,0.03,0.05,0.04,29.63
2025-09-22T21:21:45.745778,-8.4,-0.45,-5.38,0.06,0.02,-0.02,29.62
2025-09-22T21:21:45.818516,-8.41,-0.39,-5.37,0.06,0.02,-0.0,29.62
2025-09-22T21:21:45.939263,-8.39,-0.52,-5.36,0.05,0.02,-0.01,29.64
2025-09-22T21:21:46.018871,-8.39,-0.52,-5.31,0.07,0.0,-0.02,29.62
2025-09-22T21:21:46.498225,-8.45,-0.47,-5.33,0.05,0.03,0.0,29.63
2025-09-22T21:21:46.499245,-8.46,-0.53,-5.33,0.04,0.03,0.0,29.62
2025-09-22T21:21:46.499245,-8.43,-0.48,-5.33,0.03,0.04,0.01,29.64
2025-09-22T21:21:46.504502,-8.39,-0.52,-5.37,0.03,0.05,0.04,29.63
2025-09-22T21:21:46.534965,-8.42,-0.44,-5.38,0.05,0.03,-0.01,29.63
2025-09-22T21:21:46.647759,-8.43,-0.37,-5.38,0.03,0.05,0.02,29.62
2025-09-22T21:21:46.754984,-8.41,-0.45,-5.39,0.06,0.02,-0.03,29.63
2025-09-22T21:21:46.855400,-8.45,-0.4,-5.35,0.06,0.02,-0.01,29.63
2025-09-22T21:21:46.945861,-8.41,-0.51,-5.35,0.06,0.02,-0.0,29.61
2025-09-22T21:21:47.048938,-8.44,-0.5,-5.37,0.06,0.02,-0.0,29.63
2025-09-22T21:21:47.167992,-8.43,-0.49,-5.35,0.04,0.03,-0.0,29.63
2025-09-22T21:21:47.253995,-8.41,-0.51,-5.34,0.04,0.04,0.0,29.62
2025-09-22T21:21:47.374120,-8.46,-0.45,-5.35,0.03,0.04,0.01,29.61
2025-09-22T21:21:47.464990,-8.43,-0.44,-5.37,0.03,0.04,0.03,29.63
2025-09-22T21:21:47.563871,-8.4,-0.46,-5.39,0.05,0.02,0.0,29.61
2025-09-22T21:21:47.669996,-8.4,-0.43,-5.36,0.06,0.02,-0.01,29.62
2025-09-22T21:21:47.782841,-8.4,-0.47,-5.36,0.05,0.03,-0.01,29.63
2025-09-22T21:21:47.874911,-8.42,-0.49,-5.37,0.06,0.01,-0.03,29.61
2025-09-22T21:21:47.978962,-8.41,-0.48,-5.34,0.05,0.02,-0.0,29.6
2025-09-22T21:21:48.081415,-8.43,-0.48,-5.36,0.05,0.03,0.0,29.6
2025-09-22T21:21:48.187065,-8.42,-0.52,-5.33,0.04,0.04,0.02,29.63
2025-09-22T21:21:48.294907,-8.4,-0.49,-5.35,0.04,0.04,0.01,29.62
2025-09-22T21:21:48.402924,-8.42,-0.43,-5.36,0.04,0.04,0.01,29.61
2025-09-22T21:21:48.494975,-8.41,-0.44,-5.37,0.04,0.04,0.02,29.64
2025-09-22T21:21:48.593840,-8.4,-0.49,-5.38,0.06,0.02,-0.01,29.62
2025-09-22T21:21:48.695284,-8.42,-0.44,-5.39,0.06,0.02,-0.01,29.63
2025-09-22T21:21:48.805062,-8.41,-0.49,-5.36,0.05,0.03,-0.0,29.62
2025-09-22T21:21:48.905532,-8.42,-0.51,-5.36,0.05,0.03,-0.0,29.62
2025-09-22T21:21:49.026266,-8.43,-0.48,-5.35,0.04,0.03,0.0,29.64
2025-09-22T21:21:49.108897,-8.43,-0.47,-5.35,0.04,0.03,0.01,29.63
2025-09-22T21:21:49.211847,-8.42,-0.49,-5.37,0.04,0.03,0.0,29.63
2025-09-22T21:21:49.314222,-8.42,-0.47,-5.39,0.04,0.03,-0.0,29.62
2025-09-22T21:21:49.429128,-8.42,-0.44,-5.38,0.04,0.03,-0.0,29.61
2025-09-22T21:21:49.527676,-8.43,-0.43,-5.37,0.05,0.03,0.01,29.61
2025-09-22T21:21:49.623830,-8.43,-0.47,-5.32,0.05,0.03,0.01,29.61
2025-09-22T21:21:49.726838,-8.39,-0.49,-5.36,0.06,0.01,-0.02,29.63
2025-09-22T21:21:49.829875,-8.41,-0.48,-5.39,0.05,0.03,-0.01,29.62
2025-09-22T21:21:49.932925,-8.41,-0.51,-5.33,0.04,0.03,-0.0,29.62
2025-09-22T21:21:50.034881,-8.44,-0.47,-5.32,0.05,0.03,-0.01,29.62
2025-09-22T21:21:50.155085,-8.46,-0.43,-5.37,0.04,0.04,0.03,29.62
2025-09-22T21:21:50.255902,-8.43,-0.5,-5.38,0.04,0.04,0.03,29.61
2025-09-22T21:21:50.361374,-8.4,-0.46,-5.37,0.05,0.03,-0.01,29.61
2025-09-22T21:21:50.455389,-8.41,-0.44,-5.38,0.05,0.03,-0.01,29.62
2025-09-22T21:21:50.550873,-8.42,-0.47,-5.37,0.05,0.02,-0.02,29.62
2025-09-22T21:21:50.658914,-8.42,-0.46,-5.35,0.06,0.01,-0.02,29.62
2025-09-22T21:21:50.757394,-8.46,-0.48,-5.31,0.05,0.02,0.0,29.61
2025-09-22T21:21:50.859821,-8.42,-0.5,-5.36,0.04,0.04,0.02,29.62
2025-09-22T21:21:50.962816,-8.41,-0.48,-5.35,0.04,0.04,0.01,29.61
2025-09-22T21:21:51.075317,-8.43,-0.48,-5.36,0.03,0.05,0.02,29.62
2025-09-22T21:21:51.171480,-8.41,-0.48,-5.35,0.05,0.02,-0.01,29.6
2025-09-22T21:21:51.272445,-8.43,-0.44,-5.37,0.05,0.02,-0.01,29.61
2025-09-22T21:21:51.374855,-8.41,-0.45,-5.37,0.05,0.03,0.0,29.62
2025-09-22T21:21:51.481011,-8.41,-0.47,-5.37,0.05,0.03,-0.01,29.62
2025-09-22T21:21:51.587231,-8.43,-0.46,-5.36,0.05,0.03,-0.01,29.62
2025-09-22T21:21:51.686435,-8.44,-0.49,-5.33,0.05,0.03,-0.0,29.61
2025-09-22T21:21:51.788399,-8.43,-0.47,-5.35,0.05,0.02,-0.01,29.61
2025-09-22T21:21:51.891435,-8.42,-0.48,-5.35,0.04,0.04,0.02,29.62
2025-09-22T21:21:51.992811,-8.4,-0.49,-5.36,0.05,0.03,-0.0,29.62
2025-09-22T21:21:52.096411,-8.44,-0.41,-5.39,0.04,0.04,0.0,29.62
2025-09-22T21:21:52.199408,-8.43,-0.47,-5.37,0.04,0.03,0.0,29.61
2025-09-22T21:21:52.306315,-8.43,-0.44,-5.36,0.05,0.02,-0.0,29.61
2025-09-22T21:21:52.419262,-8.41,-0.49,-5.35,0.05,0.03,0.01,29.62
2025-09-22T21:21:52.514008,-8.4,-0.5,-5.37,0.05,0.02,-0.01,29.61
2025-09-22T21:21:52.613448,-8.4,-0.48,-5.35,0.05,0.03,-0.01,29.61
2025-09-22T21:21:52.714959,-8.43,-0.49,-5.34,0.04,0.04,0.0,29.6
2025-09-22T21:21:52.823571,-8.44,-0.46,-5.37,0.05,0.03,-0.0,29.6
2025-09-22T21:21:52.951668,-8.43,-0.47,-5.35,0.04,0.03,0.02,29.62
2025-09-22T21:21:53.050509,-8.4,-0.49,-5.34,0.04,0.04,0.02,29.6
2025-09-22T21:21:53.125840,-8.37,-0.5,-5.39,0.05,0.03,-0.01,29.62
2025-09-22T21:21:53.228843,-8.42,-0.44,-5.4,0.05,0.03,-0.02,29.62
2025-09-22T21:21:53.332388,-8.45,-0.47,-5.34,0.04,0.04,0.02,29.6
2025-09-22T21:21:53.437401,-8.43,-0.47,-5.35,0.06,0.01,-0.02,29.61
2025-09-22T21:21:53.537158,-8.43,-0.45,-5.37,0.05,0.03,0.02,29.59
2025-09-22T21:21:53.642454,-8.39,-0.52,-5.35,0.05,0.03,0.01,29.61
2025-09-22T21:21:53.743832,-8.42,-0.48,-5.37,0.05,0.03,-0.01,29.62
2025-09-22T21:21:53.847862,-8.43,-0.47,-5.37,0.04,0.04,0.01,29.62
2025-09-22T21:21:53.952397,-8.42,-0.46,-5.33,0.05,0.02,-0.02,29.62
2025-09-22T21:21:54.056474,-8.43,-0.44,-5.35,0.05,0.02,-0.0,29.6
2025-09-22T21:21:54.156330,-8.43,-0.49,-5.35,0.05,0.03,0.01,29.61
2025-09-22T21:21:54.258344,-8.39,-0.49,-5.4,0.05,0.02,-0.01,29.61
2025-09-22T21:21:54.361799,-8.43,-0.48,-5.33,0.05,0.03,-0.0,29.6
2025-09-22T21:21:54.464851,-8.43,-0.5,-5.31,0.04,0.03,-0.0,29.62
2025-09-22T21:21:54.571965,-8.41,-0.48,-5.33,0.05,0.02,-0.01,29.61
2025-09-22T21:21:54.670829,-8.41,-0.46,-5.34,0.04,0.03,0.01,29.61
2025-09-22T21:21:54.773785,-8.42,-0.48,-5.36,0.04,0.03,0.01,29.61
2025-09-22T21:21:54.876785,-8.42,-0.47,-5.36,0.05,0.04,0.0,29.63
2025-09-22T21:21:54.981882,-8.42,-0.46,-5.35,0.05,0.03,0.01,29.63
2025-09-22T21:21:55.088343,-8.42,-0.48,-5.37,0.05,0.02,-0.0,29.61
2025-09-22T21:21:55.189437,-8.41,-0.49,-5.33,0.05,0.02,-0.01,29.62
2025-09-22T21:21:55.291758,-8.39,-0.5,-5.35,0.05,0.02,-0.02,29.6
2025-09-22T21:21:55.392929,-8.43,-0.46,-5.34,0.05,0.03,-0.01,29.62
2025-09-22T21:21:55.517289,-8.44,-0.47,-5.37,0.05,0.03,0.0,29.62
2025-09-22T21:21:55.636305,-8.42,-0.42,-5.34,0.04,0.04,0.02,29.6
2025-09-22T21:21:55.716313,-8.38,-0.52,-5.37,0.04,0.04,0.02,29.61
2025-09-22T21:21:55.823289,-8.42,-0.48,-5.37,0.06,0.02,-0.03,29.61
2025-09-22T21:21:55.908911,-8.44,-0.45,-5.37,0.04,0.04,0.0,29.62
2025-09-22T21:21:56.012262,-8.43,-0.51,-5.37,0.05,0.02,-0.02,29.61
2025-09-22T21:21:56.113849,-8.43,-0.46,-5.36,0.06,0.02,-0.01,29.62
2025-09-22T21:21:56.215255,-8.43,-0.47,-5.35,0.05,0.04,0.02,29.61
2025-09-22T21:21:56.322281,-8.39,-0.5,-5.4,0.05,0.03,-0.0,29.6
2025-09-22T21:21:56.427882,-8.42,-0.48,-5.36,0.04,0.03,-0.01,29.62
2025-09-22T21:21:56.530589,-8.42,-0.5,-5.35,0.04,0.03,-0.0,29.6
2025-09-22T21:21:56.636016,-8.44,-0.47,-5.35,0.05,0.02,-0.0,29.63
2025-09-22T21:21:56.732156,-8.43,-0.47,-5.37,0.05,0.03,0.01,29.62
2025-09-22T21:21:56.836911,-8.4,-0.46,-5.38,0.05,0.03,0.0,29.62
2025-09-22T21:21:56.937285,-8.44,-0.45,-5.37,0.05,0.03,-0.01,29.61
2025-09-22T21:21:57.040326,-8.43,-0.45,-5.32,0.05,0.02,-0.01,29.62
2025-09-22T21:21:57.143279,-8.42,-0.5,-5.36,0.05,0.02,-0.0,29.62
2025-09-22T21:21:57.246862,-8.41,-0.51,-5.36,0.05,0.02,-0.03,29.62
2025-09-22T21:21:57.349924,-8.43,-0.44,-5.35,0.05,0.03,-0.01,29.62
2025-09-22T21:21:57.458456,-8.42,-0.48,-5.37,0.04,0.04,0.02,29.6
2025-09-22T21:21:57.554758,-8.42,-0.48,-5.36,0.05,0.03,0.01,29.6
2025-09-22T21:21:57.660826,-8.41,-0.49,-5.35,0.05,0.03,-0.0,29.62
2025-09-22T21:21:57.760908,-8.4,-0.49,-5.36,0.05,0.03,-0.01,29.61
2025-09-22T21:21:57.862486,-8.41,-0.45,-5.36,0.05,0.03,-0.02,29.6
2025-09-22T21:21:57.970241,-8.43,-0.47,-5.36,0.05,0.02,-0.0,29.61
2025-09-22T21:21:58.070308,-8.44,-0.45,-5.35,0.05,0.03,0.0,29.61
2025-09-22T21:21:58.173886,-8.41,-0.46,-5.37,0.05,0.04,0.01,29.61
2025-09-22T21:21:58.274878,-8.41,-0.49,-5.36,0.05,0.03,-0.01,29.6
2025-09-22T21:21:58.383565,-8.43,-0.46,-5.38,0.04,0.03,0.0,29.6
2025-09-22T21:21:58.505617,-8.43,-0.46,-5.35,0.04,0.03,0.01,29.6
2025-09-22T21:21:58.584791,-8.42,-0.45,-5.36,0.05,0.03,-0.0,29.61
2025-09-22T21:21:58.688274,-8.42,-0.47,-5.35,0.05,0.03,-0.0,29.59
2025-09-22T21:21:58.790819,-8.43,-0.46,-5.34,0.05,0.03,0.0,29.6
2025-09-22T21:21:58.893294,-8.42,-0.47,-5.34,0.05,0.03,0.01,29.6
2025-09-22T21:21:58.996804,-8.42,-0.49,-5.38,0.05,0.02,-0.01,29.6
2025-09-22T21:21:59.099787,-8.41,-0.47,-5.32,0.05,0.03,-0.01,29.61
2025-09-22T21:21:59.204114,-8.43,-0.46,-5.33,0.04,0.03,-0.01,29.63
2025-09-22T21:21:59.306813,-8.45,-0.47,-5.36,0.05,0.03,0.0,29.6
2025-09-22T21:21:59.408748,-8.42,-0.46,-5.34,0.04,0.03,0.02,29.6
2025-09-22T21:21:59.510273,-8.4,-0.48,-5.37,0.05,0.04,0.01,29.61
2025-09-22T21:22:00.139917,-8.39,-0.47,-5.34,0.05,0.03,-0.01,29.62
2025-09-22T21:22:00.139917,-8.43,-0.45,-5.33,0.05,0.03,-0.01,29.59
2025-09-22T21:22:00.140428,-8.43,-0.47,-5.32,0.05,0.03,0.0,29.59
2025-09-22T21:22:00.142473,-8.41,-0.49,-5.35,0.05,0.03,0.0,29.6
2025-09-22T21:22:00.144043,-8.42,-0.49,-5.36,0.04,0.04,0.0,29.61
2025-09-22T21:22:00.144043,-8.42,-0.47,-5.34,0.04,0.04,0.02,29.61
2025-09-22T21:22:00.232086,-8.41,-0.5,-5.36,0.04,0.03,0.01,29.61
2025-09-22T21:22:00.336829,-8.42,-0.44,-5.36,0.05,0.03,0.01,29.59
2025-09-22T21:22:00.439269,-8.4,-0.48,-5.33,0.04,0.04,0.01,29.62
2025-09-22T21:22:00.541735,-8.46,-0.41,-5.35,0.04,0.04,0.02,29.6
2025-09-22T21:22:00.644790,-8.4,-0.52,-5.38,0.05,0.03,0.02,29.6
2025-09-22T21:22:00.747848,-8.4,-0.48,-5.36,0.06,0.02,-0.01,29.6
2025-09-22T21:22:00.854565,-8.42,-0.48,-5.32,0.04,0.04,0.0,29.62
2025-09-22T21:22:00.953296,-8.42,-0.52,-5.32,0.05,0.02,-0.02,29.6
2025-09-22T21:22:01.058271,-8.43,-0.46,-5.36,0.05,0.02,-0.0,29.6
2025-09-22T21:22:01.160248,-8.43,-0.47,-5.36,0.04,0.04,0.01,29.59
2025-09-22T21:22:01.263238,-8.43,-0.48,-5.37,0.05,0.02,-0.01,29.59
2025-09-22T21:22:01.367366,-8.4,-0.47,-5.37,0.05,0.03,0.01,29.58
2025-09-22T21:22:01.470286,-8.41,-0.48,-5.35,0.05,0.03,-0.0,29.6
2025-09-22T21:22:01.572294,-8.42,-0.49,-5.36,0.05,0.02,-0.02,29.6
2025-09-22T21:22:01.675304,-8.44,-0.48,-5.36,0.05,0.03,-0.01,29.6
2025-09-22T21:22:01.777773,-8.42,-0.48,-5.36,0.05,0.03,0.02,29.6
2025-09-22T21:22:01.881930,-8.41,-0.49,-5.36,0.05,0.03,0.01,29.59
2025-09-22T21:22:02.020391,-8.41,-0.48,-5.34,0.04,0.04,0.01,29.6
2025-09-22T21:22:02.091896,-8.41,-0.51,-5.34,0.04,0.03,0.0,29.59
2025-09-22T21:22:02.202807,-8.43,-0.45,-5.35,0.05,0.03,-0.0,29.61
2025-09-22T21:22:02.326432,-8.39,-0.48,-5.36,0.04,0.04,0.01,29.6
2025-09-22T21:22:02.396297,-8.42,-0.5,-5.35,0.05,0.03,-0.0,29.61
2025-09-22T21:22:02.499244,-8.39,-0.48,-5.32,0.05,0.03,0.02,29.6
2025-09-22T21:22:02.608348,-8.41,-0.49,-5.35,0.04,0.04,0.01,29.59
2025-09-22T21:22:02.715637,-8.42,-0.48,-5.37,0.04,0.03,-0.0,29.59
2025-09-22T21:22:02.807713,-8.44,-0.5,-5.36,0.05,0.03,-0.0,29.59
2025-09-22T21:22:02.910814,-8.42,-0.47,-5.34,0.05,0.02,-0.0,29.61
2025-09-22T21:22:03.013705,-8.43,-0.47,-5.33,0.04,0.04,0.01,29.61
2025-09-22T21:22:03.118823,-8.41,-0.48,-5.37,0.05,0.03,0.0,29.59
2025-09-22T21:22:03.223792,-8.42,-0.48,-5.35,0.05,0.03,-0.0,29.59
2025-09-22T21:22:03.322756,-8.41,-0.48,-5.35,0.05,0.03,0.0,29.6
2025-09-22T21:22:03.453830,-8.43,-0.47,-5.37,0.05,0.03,-0.01,29.59
2025-09-22T21:22:03.528701,-8.44,-0.48,-5.38,0.04,0.03,0.01,29.6
2025-09-22T21:22:03.632844,-8.41,-0.48,-5.34,0.05,0.03,0.01,29.6
2025-09-22T21:22:03.738752,-8.41,-0.49,-5.34,0.05,0.03,0.0,29.59
2025-09-22T21:22:03.860371,-8.41,-0.49,-5.37,0.05,0.03,-0.02,29.59
2025-09-22T21:22:03.967415,-8.44,-0.47,-5.35,0.05,0.03,0.0,29.58
2025-09-22T21:22:04.066955,-8.43,-0.51,-5.36,0.05,0.03,0.01,29.59
2025-09-22T21:22:04.146695,-8.42,-0.47,-5.34,0.05,0.03,0.01,29.59
2025-09-22T21:22:04.250247,-8.4,-0.47,-5.34,0.04,0.04,0.01,29.58
2025-09-22T21:22:04.361584,-8.41,-0.48,-5.34,0.05,0.03,-0.0,29.59
2025-09-22T21:22:04.455237,-8.42,-0.47,-5.36,0.04,0.03,0.0,29.58
2025-09-22T21:22:04.559772,-8.41,-0.51,-5.37,0.05,0.02,-0.02,29.58
2025-09-22T21:22:04.662211,-8.47,-0.45,-5.33,0.06,0.01,-0.03,29.59
2025-09-22T21:22:04.764717,-8.44,-0.47,-5.39,0.04,0.04,0.02,29.6
2025-09-22T21:22:04.869449,-8.4,-0.51,-5.36,0.05,0.02,-0.02,29.6
2025-09-22T21:22:04.971428,-9.25,-1.59,-4.53,1.0,1.18,0.71,29.58
2025-09-22T21:22:05.077186,-11.35,1.13,-6.08,1.23,-1.88,0.1,29.59
2025-09-22T21:22:05.177211,-11.2,0.8,-5.45,2.06,-3.16,-0.01,29.59
2025-09-22T21:22:05.282750,-7.98,0.88,-3.5,2.41,-4.22,-1.39,29.59
2025-09-22T21:22:05.382770,-8.27,0.76,0.28,0.99,-3.16,-0.68,29.61
2025-09-22T21:22:05.490961,-7.37,1.2,4.37,1.6,-2.21,-0.19,29.59
2025-09-22T21:22:05.589528,-5.96,1.24,5.05,1.15,-1.76,-0.23,29.57
2025-09-22T21:22:05.706329,-3.87,2.37,5.99,1.01,-1.41,-0.31,29.59
2025-09-22T21:22:05.796523,-3.21,3.32,7.26,0.8,-1.25,-0.33,29.59
2025-09-22T21:22:05.899528,-4.3,3.03,7.92,0.48,-1.38,-0.2,29.58
2025-09-22T21:22:06.001755,-1.15,3.47,7.76,0.12,-0.71,0.6,29.58
2025-09-22T21:22:06.103738,0.33,3.18,8.38,0.54,-0.85,-0.26,29.59
2025-09-22T21:22:06.234123,0.71,2.49,8.19,0.59,-1.24,0.15,29.61
2025-09-22T21:22:06.309725,2.21,3.91,7.33,0.21,-1.17,0.52,29.57
2025-09-22T21:22:06.413266,3.13,5.23,6.53,0.55,-0.75,-0.15,29.59
2025-09-22T21:22:06.515743,3.88,5.66,6.26,0.23,-0.27,0.23,29.58
2025-09-22T21:22:06.621333,3.34,5.62,6.66,0.25,0.03,0.02,29.6
2025-09-22T21:22:06.724176,3.07,5.43,6.56,0.19,0.1,-0.07,29.6
2025-09-22T21:22:06.823528,2.66,5.74,6.68,0.1,0.24,0.01,29.6
2025-09-22T21:22:06.927781,2.55,4.88,6.8,0.07,0.14,-0.01,29.6
2025-09-22T21:22:07.030465,2.09,5.57,6.77,0.15,0.53,-0.16,29.59
2025-09-22T21:22:07.137331,2.24,7.43,6.41,-1.29,2.09,-0.82,29.6
2025-09-22T21:22:07.235932,-0.46,6.45,6.05,-2.49,2.85,-0.71,29.59
2025-09-22T21:22:07.339709,-6.67,-1.42,6.79,-1.24,3.88,2.2,29.61
2025-09-22T21:22:07.442686,-6.4,3.62,4.83,0.48,2.01,0.73,29.6
2025-09-22T21:22:07.549831,-12.67,0.09,3.46,0.1,1.59,1.52,29.6
2025-09-22T21:22:07.649224,-8.24,1.82,2.97,1.08,-1.58,0.48,29.62
2025-09-22T21:22:07.752727,-6.58,6.9,1.33,2.03,-4.33,-2.4,29.58
2025-09-22T21:22:07.857798,-8.94,3.35,4.35,-0.66,-4.61,0.23,29.6
2025-09-22T21:22:07.958389,2.67,4.33,6.99,-1.56,-3.76,-0.21,29.6
2025-09-22T21:22:08.090534,9.18,-4.6,7.06,-2.49,-1.71,1.18,29.59
2025-09-22T21:22:08.163661,7.0,-6.71,5.97,-3.46,-2.01,1.02,29.59
2025-09-22T21:22:08.269644,8.32,-4.76,6.78,-0.09,0.18,0.14,29.6
2025-09-22T21:22:08.369701,4.97,-6.48,6.37,1.48,1.65,1.56,29.61
2025-09-22T21:22:08.473260,6.17,-2.31,7.2,1.04,1.58,1.43,29.6
2025-09-22T21:22:08.576270,-3.63,-3.51,9.12,1.73,0.79,0.66,29.62
2025-09-22T21:22:08.678695,0.18,1.21,8.3,2.37,0.91,0.26,29.61
2025-09-22T21:22:08.781758,-3.37,3.85,8.39,1.08,-0.0,-0.15,29.62
2025-09-22T21:22:08.886742,-0.84,2.25,8.21,0.93,-0.04,-0.71,29.6
2025-09-22T21:22:08.988204,-3.29,4.0,8.24,0.31,0.24,0.47,29.6
2025-09-22T21:22:09.091895,-2.21,5.26,7.52,0.48,-0.15,-0.43,29.6
2025-09-22T21:22:09.192825,-0.21,4.43,6.99,-0.15,-1.19,-1.06,29.6
2025-09-22T21:22:09.298230,-1.4,5.2,7.16,-0.3,-0.51,-0.67,29.58
2025-09-22T21:22:09.403285,-3.53,5.27,7.05,0.0,-0.03,-0.27,29.59
2025-09-22T21:22:09.503719,-1.1,3.52,8.05,0.03,-0.03,-0.13,29.6
2025-09-22T21:22:09.607840,-1.45,2.95,8.09,-0.34,-0.43,-0.46,29.61
2025-09-22T21:22:09.710523,0.85,2.37,8.23,-1.21,-2.1,-1.37,29.95
2025-09-22T21:22:09.812745,0.48,2.76,9.15,-0.61,-0.13,-1.96,30.02
2025-09-22T21:22:09.917629,0.08,1.32,9.12,-0.78,-0.61,-0.3,30.36
2025-09-22T21:22:10.019198,1.52,0.78,9.58,0.27,-0.75,0.36,30.61
2025-09-22T21:22:10.121775,1.15,0.99,9.28,-0.36,0.7,0.2,30.81
2025-09-22T21:22:10.225246,0.47,0.52,8.43,0.19,0.27,-0.12,30.96
2025-09-22T21:22:10.326679,1.09,0.82,9.45,0.71,-0.37,-0.66,31.09
2025-09-22T21:22:10.428933,0.27,1.11,9.18,-0.34,0.22,-0.63,31.22
2025-09-22T21:22:10.533210,0.41,0.18,9.32,0.09,0.19,-0.5,31.32
2025-09-22T21:22:10.634988,0.09,-1.04,9.11,-0.19,-0.15,-0.17,31.43
2025-09-22T21:22:10.738650,0.45,-1.06,9.29,0.07,-0.13,-0.21,31.52
2025-09-22T21:22:10.841874,0.51,-0.65,9.56,-0.14,0.01,-0.45,31.62
2025-09-22T21:22:10.942816,0.26,-1.04,9.37,0.08,0.2,-0.86,31.66
2025-09-22T21:22:11.047807,0.27,-0.75,8.92,0.14,-0.09,-0.4,31.72
2025-09-22T21:22:11.151255,0.56,-0.83,8.96,0.19,-0.32,-0.19,31.78
2025-09-22T21:22:11.253677,0.81,-0.39,8.84,0.18,-0.05,0.05,31.87
2025-09-22T21:22:11.358212,1.01,-0.77,9.11,-0.09,0.27,0.05,31.97
2025-09-22T21:22:11.459693,0.41,-0.66,8.96,0.07,0.23,-0.26,32.04
2025-09-22T21:22:11.562627,-0.02,-0.62,8.54,-0.17,-0.01,0.08,32.09
2025-09-22T21:22:11.664992,0.35,-0.62,8.52,0.38,0.21,0.14,32.06
2025-09-22T21:22:11.769711,0.24,0.25,9.11,0.29,0.2,-0.12,31.95
2025-09-22T21:22:11.871730,0.14,-0.71,9.07,-0.03,-0.01,0.27,32.01
2025-09-22T21:22:11.974626,0.34,-0.71,9.31,0.02,0.0,-0.23,32.2
2025-09-22T21:22:12.077669,0.2,-0.25,9.11,0.4,0.11,-0.01,32.33
2025-09-22T21:22:12.180742,-0.33,0.66,9.79,0.85,0.7,0.32,32.43
2025-09-22T21:22:12.284202,-0.47,1.01,9.04,0.07,0.1,0.53,32.3
2025-09-22T21:22:12.399634,-0.45,1.35,8.56,0.09,0.17,-0.11,32.18
2025-09-22T21:22:12.511191,-0.77,1.28,8.92,-0.04,0.25,-0.13,32.1
2025-09-22T21:22:12.599818,1.02,1.0,8.4,-0.13,0.34,0.12,32.02
2025-09-22T21:22:12.698747,-0.96,1.91,8.67,0.09,0.44,-0.84,32.02
2025-09-22T21:22:12.801341,-0.97,0.89,9.23,-0.17,-0.38,0.36,32.2
2025-09-22T21:22:12.917543,-0.04,1.0,9.1,-0.17,-0.38,0.36,32.41
2025-09-22T21:22:13.018677,-0.39,0.28,8.82,-0.17,-0.38,0.36,32.57
2025-09-22T21:22:13.147387,-0.58,0.77,9.34,-0.17,-0.38,0.36,32.69
2025-09-22T21:22:13.217474,-0.7,-0.22,8.49,-0.17,-0.38,0.36,32.79
2025-09-22T21:22:13.315059,-0.57,-0.09,9.44,-0.17,-0.38,0.35,32.86
2025-09-22T21:22:13.437265,0.03,0.29,9.19,-0.17,-0.38,0.36,32.93
2025-09-22T21:22:13.524458,0.74,-1.12,9.31,-0.17,-0.38,0.36,33.01
2025-09-22T21:22:13.623715,0.39,-0.65,9.04,-0.17,-0.38,0.36,33.08
2025-09-22T21:22:13.741249,0.13,-0.27,9.03,-0.17,-0.38,0.36,33.17
2025-09-22T21:22:13.850466,0.3,-0.09,9.12,-0.17,-0.38,0.36,33.22
2025-09-22T21:22:13.931718,0.4,-0.56,9.06,-0.17,-0.38,0.37,33.26
2025-09-22T21:22:14.034724,0.2,-0.19,8.93,-0.17,-0.38,0.37,33.35
2025-09-22T21:22:14.137460,0.37,-0.4,9.04,-0.17,-0.38,0.36,33.39
2025-09-22T21:22:14.241235,0.3,0.19,9.07,-0.17,-0.39,0.36,33.42
2025-09-22T21:22:14.344177,0.29,-0.2,8.96,-0.17,-0.38,0.36,33.47
2025-09-22T21:22:14.451039,0.25,-0.13,8.99,-0.17,-0.39,0.36,33.52
2025-09-22T21:22:14.552401,0.28,-0.09,9.14,-0.17,-0.38,0.36,33.55
2025-09-22T21:22:14.655589,0.27,-0.18,9.07,-0.17,-0.38,0.36,33.62
2025-09-22T21:22:14.757718,0.19,-0.05,8.88,-0.17,-0.39,0.36,33.63
2025-09-22T21:22:14.857927,0.11,0.15,8.99,-0.17,-0.38,0.36,33.68
2025-09-22T21:22:14.963348,0.14,0.13,8.86,-0.17,-0.39,0.36,33.72
2025-09-22T21:22:15.065185,0.12,0.0,8.76,-0.16,-0.38,0.36,33.75
2025-09-22T21:22:15.167559,0.25,0.11,8.8,-0.16,-0.38,0.36,33.8
2025-09-22T21:22:15.278971,0.08,-0.02,8.83,-0.16,-0.38,0.36,33.84
2025-09-22T21:22:15.373329,0.07,0.2,8.97,-0.17,-0.38,0.35,33.87
2025-09-22T21:22:15.497544,0.29,0.14,8.98,-0.17,-0.38,0.35,33.91
2025-09-22T21:22:15.579319,-0.06,-0.11,8.84,-0.17,-0.38,0.35,33.93
2025-09-22T21:22:15.682742,0.08,-0.15,9.08,-0.17,-0.38,0.36,33.94
2025-09-22T21:22:15.786113,15.74,6.53,0.89,0.5,1.06,1.37,33.94
2025-09-22T21:22:15.888581,-0.24,0.68,8.22,0.01,0.14,0.4,33.84
2025-09-22T21:22:15.991589,-0.71,0.47,8.49,0.03,0.03,0.13,33.74
2025-09-22T21:22:16.094628,-0.87,0.34,8.73,0.05,0.13,1.02,33.65
2025-09-22T21:22:16.198032,-1.73,1.08,8.49,-0.9,-0.03,1.39,33.58
2025-09-22T21:22:16.299254,-1.46,-3.11,9.6,-0.82,0.08,2.22,33.52
2025-09-22T21:22:16.404722,1.17,1.55,7.47,-0.31,0.63,1.64,33.45
2025-09-22T21:22:16.506213,0.28,0.39,6.62,-0.31,1.81,0.62,33.41
2025-09-22T21:22:16.608398,-10.86,0.45,7.12,-0.44,2.44,2.24,33.34
2025-09-22T21:22:16.712663,-10.33,-1.92,5.37,-0.83,2.0,1.6,33.31
2025-09-22T21:22:16.816186,-11.42,-0.51,5.56,-0.26,0.35,-0.29,33.25
2025-09-22T21:22:16.919722,-7.21,-0.47,3.74,-1.15,1.01,-0.43,33.2
2025-09-22T21:22:17.021696,-5.13,-0.85,3.01,-0.33,0.82,-2.18,33.18
2025-09-22T21:22:17.123857,-16.07,-6.01,0.11,-0.98,1.44,0.16,33.14
2025-09-22T21:22:17.227683,-7.59,-9.85,-0.13,-1.11,-0.48,-0.5,33.1
2025-09-22T21:22:17.334006,-7.21,-5.21,0.76,-0.71,-0.05,0.24,33.03
2025-09-22T21:22:17.433729,-4.95,-2.81,1.25,1.78,-0.79,-0.95,33.02
2025-09-22T21:22:17.536590,-7.08,-11.61,3.05,3.75,-2.17,-2.47,33.01
2025-09-22T21:22:17.639448,-5.93,-14.14,1.93,8.73,-2.41,0.24,32.95
2025-09-22T21:22:17.742588,-0.79,-5.78,6.1,1.95,-2.05,3.87,32.92
2025-09-22T21:22:17.845413,0.87,3.78,8.55,-0.88,-0.19,1.47,32.9
2025-09-22T21:22:17.949274,1.49,5.13,7.03,-2.28,0.6,2.33,32.87
2025-09-22T21:22:18.050468,2.01,6.66,8.13,-2.44,2.19,0.46,32.84
2025-09-22T21:22:18.154657,-3.52,-1.99,8.58,-1.49,1.1,0.61,32.81
2025-09-22T21:22:18.257553,-1.89,-4.69,7.75,-1.33,2.3,1.77,32.79
2025-09-22T21:22:18.360717,-3.4,-3.15,4.79,-0.46,0.77,-0.18,32.77
2025-09-22T21:22:18.463190,-5.81,-5.23,5.89,-0.5,0.27,-0.16,32.76
2025-09-22T21:22:18.575773,-6.83,-3.1,5.21,0.03,0.72,0.61,32.72
2025-09-22T21:22:18.675549,-4.78,-4.47,4.96,-1.0,0.27,-0.24,32.72
2025-09-22T21:22:18.774215,-5.09,-3.25,4.5,-0.18,2.64,1.19,32.68
2025-09-22T21:22:18.876667,-4.24,-4.57,4.21,-0.02,0.31,0.11,32.66
2025-09-22T21:22:18.980730,-6.85,-5.37,4.07,-0.47,0.28,-0.01,32.64
2025-09-22T21:22:19.083298,-8.25,-4.88,3.56,0.05,-0.52,-0.2,32.62
2025-09-22T21:22:19.186186,-8.41,-4.99,-0.65,3.66,-4.23,-2.52,32.63
2025-09-22T21:22:19.289139,-0.29,-2.88,8.45,0.62,-2.21,0.44,32.59
2025-09-22T21:22:19.392671,-6.54,-1.98,7.21,1.29,-1.46,3.71,32.57
2025-09-22T21:22:19.494674,0.94,2.78,8.16,-1.0,2.25,1.92,32.54
2025-09-22T21:22:19.598181,0.75,6.0,8.24,-0.71,-0.03,0.56,32.54
2025-09-22T21:22:19.702786,4.15,2.5,7.38,-0.31,1.16,0.9,32.52
2025-09-22T21:22:19.805793,5.87,0.72,7.45,-0.45,-0.47,0.03,32.54
2025-09-22T21:22:19.906628,3.87,3.59,7.77,0.02,0.78,0.37,32.48
2025-09-22T21:22:20.009089,12.17,18.92,6.58,-8.29,1.21,0.62,32.5
2025-09-22T21:22:20.112625,-0.26,-4.62,7.81,-0.37,2.68,3.62,32.48
2025-09-22T21:22:20.215667,3.67,-0.06,8.44,-0.29,-0.42,0.34,32.47
2025-09-22T21:22:20.319221,4.95,0.82,7.23,-0.67,-0.04,0.55,32.44
2025-09-22T21:22:20.421384,5.66,-1.36,7.5,0.42,0.05,0.35,32.43
2025-09-22T21:22:20.524682,7.14,0.88,6.76,0.11,-0.0,-0.14,32.43
2025-09-22T21:22:20.628116,6.84,-3.32,4.82,-1.43,-2.01,-2.04,32.43
2025-09-22T21:22:20.736807,0.03,-0.26,10.86,-0.05,0.96,0.61,32.4
2025-09-22T21:22:20.852222,0.24,0.02,9.32,-0.84,0.9,0.13,32.39
2025-09-22T21:22:20.936439,3.72,4.82,6.83,-0.17,8.31,3.69,32.39
2025-09-22T21:22:21.041238,-0.27,-3.56,6.89,0.33,3.23,-0.25,32.37
2025-09-22T21:22:21.142617,-13.05,-4.19,5.76,-1.3,-0.24,-2.31,32.36
2025-09-22T21:22:21.250193,-15.59,-8.51,2.05,-1.38,2.62,1.35,32.35
2025-09-22T21:22:21.350220,-5.16,-3.52,3.59,-1.03,2.78,0.63,32.34
2025-09-22T21:22:21.488031,-10.02,-4.07,-1.85,0.42,3.5,0.37,32.32
2025-09-22T21:22:21.571617,-10.15,-1.78,-1.33,0.02,-1.03,-0.37,32.32
2025-09-22T21:22:21.657620,-6.78,-4.05,-0.72,0.11,-0.05,-0.09,32.3
2025-09-22T21:22:21.760429,-13.24,-5.76,-1.86,1.31,1.01,-0.31,32.29
2025-09-22T21:22:21.864034,-8.44,-3.79,-1.9,-0.36,-0.13,-0.06,32.29
2025-09-22T21:22:21.966625,-9.08,-3.62,-2.22,0.02,-0.11,0.01,32.28
2025-09-22T21:22:22.085314,-8.85,-3.29,-1.64,0.03,-0.08,-0.22,32.28
2025-09-22T21:22:22.173827,-8.69,-3.43,-1.75,0.03,0.02,-0.03,32.27
2025-09-22T21:22:22.275343,-8.79,-3.37,-1.61,0.05,0.03,-0.0,32.25
2025-09-22T21:22:22.378453,-8.76,-3.36,-1.62,0.05,0.03,0.0,32.24
2025-09-22T21:22:22.482135,-8.75,-3.4,-1.67,0.05,0.03,-0.01,32.24
2025-09-22T21:22:22.588027,-8.73,-3.42,-1.61,0.05,0.03,-0.0,32.22
2025-09-22T21:22:22.690799,-8.77,-3.37,-1.63,0.05,0.02,0.0,32.22
2025-09-22T21:22:22.793263,-8.7,-3.42,-1.62,0.01,0.0,0.04,32.21
2025-09-22T21:22:22.895710,-8.75,-3.35,-1.65,0.05,0.02,-0.03,32.19
2025-09-22T21:22:22.999517,-8.76,-3.36,-1.58,0.04,0.03,0.01,32.19
2025-09-22T21:22:23.102878,-8.75,-3.34,-1.64,0.05,0.03,0.01,32.15
2025-09-22T21:22:23.206781,-8.79,-3.27,-1.62,0.04,0.03,0.01,32.16
2025-09-22T21:22:23.307696,-8.75,-3.36,-1.58,0.05,0.04,0.02,32.16
2025-09-22T21:22:23.420911,-8.81,-3.3,-1.63,0.05,0.02,-0.01,32.14
2025-09-22T21:22:23.512150,-8.8,-3.28,-1.65,0.04,0.05,0.05,32.13
2025-09-22T21:22:23.613827,-8.81,-3.31,-1.63,0.05,0.03,-0.01,32.14
2025-09-22T21:22:23.725948,-8.79,-3.3,-1.68,0.05,0.03,0.0,32.11
2025-09-22T21:22:23.820992,-8.78,-3.32,-1.62,0.04,0.03,-0.0,32.09
2025-09-22T21:22:23.923531,-8.8,-3.28,-1.66,0.05,0.03,0.02,32.1
2025-09-22T21:22:24.026637,-8.8,-3.28,-1.62,0.04,0.04,0.02,32.09
2025-09-22T21:22:24.128294,-8.8,-3.25,-1.7,0.05,0.03,0.02,32.07
2025-09-22T21:22:24.249332,-8.78,-3.31,-1.73,0.04,0.05,0.02,32.09
2025-09-22T21:22:24.338494,-8.82,-3.17,-1.64,0.05,0.03,-0.01,32.05
2025-09-22T21:22:24.438663,-8.8,-3.24,-1.73,0.04,0.04,0.01,32.07
2025-09-22T21:22:24.544001,-8.83,-3.17,-1.66,0.05,0.03,-0.0,32.04
2025-09-22T21:22:24.645121,-8.8,-3.19,-1.66,0.05,0.03,0.02,32.02
2025-09-22T21:22:24.761088,-8.81,-3.22,-1.7,0.05,0.03,0.01,32.03
2025-09-22T21:22:24.851688,-8.83,-3.18,-1.71,0.05,0.04,0.02,32.0
2025-09-22T21:22:24.954609,-8.82,-3.17,-1.72,0.04,0.05,0.04,32.01
2025-09-22T21:22:25.076494,-8.83,-3.15,-1.74,0.04,0.05,0.02,32.01
2025-09-22T21:22:25.158831,-8.74,-3.17,-1.75,0.04,0.05,0.04,32.01
2025-09-22T21:22:25.262545,-8.9,-3.05,-1.75,0.04,0.05,0.04,32.0
2025-09-22T21:22:25.387775,-8.86,-3.06,-1.78,0.05,0.02,-0.0,32.0
2025-09-22T21:22:25.470118,-8.84,-3.06,-1.76,0.06,0.02,-0.01,31.98
2025-09-22T21:22:25.572601,-8.84,-3.09,-1.79,0.06,0.03,0.02,31.99
2025-09-22T21:22:25.675130,-8.84,-3.09,-1.78,0.05,0.04,0.03,31.97
2025-09-22T21:22:25.778593,-8.83,-3.11,-1.81,0.04,0.04,0.02,31.97
2025-09-22T21:22:25.880733,-8.85,-3.06,-1.79,0.04,0.04,0.01,31.95
2025-09-22T21:22:25.986780,-8.85,-3.04,-1.8,0.03,0.05,0.02,31.95
2025-09-22T21:22:26.113808,-8.85,-3.03,-1.83,0.04,0.03,-0.01,31.97
2025-09-22T21:22:26.188691,-8.89,-2.99,-1.79,0.04,0.03,0.0,31.93
2025-09-22T21:22:26.305044,-8.88,-3.02,-1.79,0.05,0.02,-0.0,31.94
2025-09-22T21:22:26.394846,-8.88,-2.97,-1.79,0.06,0.02,0.01,31.93
2025-09-22T21:22:26.510614,-8.88,-3.0,-1.82,0.06,0.03,0.03,31.91
2025-09-22T21:22:26.600507,-8.85,-3.02,-1.84,0.06,0.03,0.01,31.93
2025-09-22T21:22:26.705067,-8.85,-2.99,-1.86,0.05,0.04,0.02,31.91
2025-09-22T21:22:26.808159,-8.85,-3.0,-1.86,0.04,0.04,0.0,31.91
2025-09-22T21:22:26.910517,-8.88,-2.95,-1.83,0.04,0.04,-0.01,31.91
2025-09-22T21:22:27.013924,-8.89,-2.93,-1.85,0.04,0.04,-0.01,31.88
2025-09-22T21:22:27.116548,-8.9,-2.94,-1.84,0.04,0.03,0.0,31.89
2025-09-22T21:22:27.220047,-8.91,-2.9,-1.83,0.05,0.03,-0.0,31.88
2025-09-22T21:22:27.323109,-8.89,-2.93,-1.81,0.05,0.03,0.01,31.87
2025-09-22T21:22:27.426103,-8.9,-2.94,-1.82,0.05,0.03,0.01,31.88
2025-09-22T21:22:27.528631,-8.88,-2.92,-1.83,0.05,0.02,0.0,31.86
2025-09-22T21:22:27.632150,-8.9,-2.9,-1.83,0.05,0.03,0.01,31.87
2025-09-22T21:22:27.734495,-8.9,-2.89,-1.9,0.05,0.03,0.01,31.87
2025-09-22T21:22:27.837554,-8.91,-2.86,-1.91,0.05,0.03,0.01,31.85
2025-09-22T21:22:27.940596,-8.9,-2.9,-1.91,0.05,0.03,0.01,31.85
2025-09-22T21:22:28.043094,-8.92,-2.87,-1.91,0.05,0.04,0.01,31.83
2025-09-22T21:22:28.145425,-8.88,-2.88,-1.91,0.04,0.04,0.01,31.84
2025-09-22T21:22:28.248675,-8.89,-2.88,-1.9,0.04,0.03,-0.01,31.84
2025-09-22T21:22:28.350237,-8.94,-2.84,-1.87,0.04,0.03,-0.01,31.84
2025-09-22T21:22:28.454443,-8.95,-2.84,-1.88,0.04,0.03,0.0,31.82
2025-09-22T21:22:28.556893,-8.91,-2.83,-1.9,0.05,0.03,0.01,31.82
2025-09-22T21:22:28.660335,-8.93,-2.82,-1.86,0.05,0.04,0.03,31.84
2025-09-22T21:22:28.762496,-8.93,-2.85,-1.89,0.06,0.03,0.02,31.82
2025-09-22T21:22:28.866472,-8.89,-2.83,-1.95,0.06,0.03,0.01,31.82
2025-09-22T21:22:28.969039,-8.91,-2.84,-1.96,0.05,0.03,0.0,31.82
2025-09-22T21:22:29.072518,-8.9,-2.81,-1.93,0.04,0.03,-0.01,31.81
2025-09-22T21:22:29.177050,-8.9,-2.83,-1.96,0.04,0.03,-0.01,31.79
2025-09-22T21:22:29.279367,-8.95,-2.8,-1.91,0.04,0.03,-0.01,31.79
2025-09-22T21:22:29.385948,-8.96,-2.78,-1.88,0.04,0.03,0.0,31.79
2025-09-22T21:22:29.485878,-8.94,-2.8,-1.92,0.05,0.03,0.02,31.8
2025-09-22T21:22:29.617047,-8.95,-2.78,-1.9,0.05,0.04,0.03,31.79
2025-09-22T21:22:29.691465,-8.93,-2.77,-1.92,0.05,0.03,0.02,31.8
2025-09-22T21:22:29.794561,-8.9,-2.8,-1.97,0.05,0.02,0.0,31.78
2025-09-22T21:22:29.897605,-8.92,-2.79,-1.92,0.05,0.03,-0.0,31.77
2025-09-22T21:22:30.026294,-8.93,-2.77,-1.96,0.05,0.03,-0.01,31.78
2025-09-22T21:22:30.105191,-8.95,-2.76,-1.97,0.04,0.03,-0.01,31.77
2025-09-22T21:22:30.207078,-8.95,-2.76,-1.92,0.04,0.04,0.01,31.76
2025-09-22T21:22:30.309356,-8.95,-2.77,-1.92,0.04,0.04,0.01,31.77
2025-09-22T21:22:30.412897,-8.94,-2.74,-1.94,0.05,0.03,0.0,31.75
2025-09-22T21:22:30.514489,-8.93,-2.73,-1.9,0.05,0.03,0.01,31.74
2025-09-22T21:22:30.618448,-8.93,-2.74,-1.96,0.05,0.02,0.0,31.73
2025-09-22T21:22:30.721472,-8.92,-2.71,-1.95,0.06,0.02,-0.0,31.74
2025-09-22T21:22:30.838658,-8.93,-2.74,-1.98,0.05,0.03,0.01,31.75
2025-09-22T21:22:30.927364,-8.96,-2.72,-1.96,0.05,0.03,-0.0,31.74
2025-09-22T21:22:31.032389,-8.92,-2.77,-1.99,0.04,0.04,0.01,31.72
2025-09-22T21:22:31.139210,-8.93,-2.73,-1.95,0.04,0.03,-0.02,31.73
2025-09-22T21:22:31.237063,-8.95,-2.68,-1.91,0.04,0.03,-0.0,31.73
2025-09-22T21:22:31.342763,-8.95,-2.72,-1.94,0.04,0.03,-0.0,31.72
2025-09-22T21:22:31.442341,-8.99,-2.66,-1.96,0.05,0.03,0.0,31.73
2025-09-22T21:22:31.548976,-8.98,-2.67,-1.94,0.06,0.02,0.02,31.71
2025-09-22T21:22:31.650082,-8.96,-2.69,-1.98,0.06,0.03,0.02,31.71
2025-09-22T21:22:31.757429,-8.9,-2.74,-2.03,0.06,0.03,0.01,31.7
2025-09-22T21:22:31.857422,-8.94,-2.69,-2.0,0.05,0.04,0.0,31.69
2025-09-22T21:22:31.958014,-8.93,-2.7,-1.95,0.04,0.04,0.01,31.69
2025-09-22T21:22:32.060552,-8.95,-2.69,-1.95,0.04,0.03,-0.02,31.7
2025-09-22T21:22:32.165459,-8.98,-2.67,-1.93,0.04,0.03,-0.01,31.69
2025-09-22T21:22:32.267062,-8.99,-2.65,-1.92,0.05,0.02,-0.01,31.69
2025-09-22T21:22:32.367859,-8.96,-2.64,-1.95,0.05,0.02,0.01,31.69
2025-09-22T21:22:32.474082,-8.93,-2.67,-1.99,0.06,0.03,0.02,31.67
2025-09-22T21:22:32.576530,-8.94,-2.67,-2.0,0.06,0.03,0.02,31.67
2025-09-22T21:22:32.678545,-8.93,-2.7,-2.01,0.05,0.03,0.01,31.68
2025-09-22T21:22:32.781496,-8.94,-2.68,-1.98,0.04,0.03,-0.01,31.68
2025-09-22T21:22:32.882930,-8.94,-2.66,-1.98,0.04,0.03,-0.02,31.67
2025-09-22T21:22:32.987539,-9.0,-2.64,-1.97,0.04,0.03,-0.01,31.66
2025-09-22T21:22:33.092372,-9.0,-2.62,-1.96,0.04,0.03,0.01,31.64
2025-09-22T21:22:33.199721,-8.97,-2.63,-1.97,0.05,0.03,0.02,31.68
2025-09-22T21:22:33.296565,-8.96,-2.66,-1.96,0.06,0.03,0.02,31.65
2025-09-22T21:22:33.401758,-8.94,-2.66,-2.01,0.05,0.03,0.01,31.66
2025-09-22T21:22:33.503523,-8.95,-2.64,-1.99,0.05,0.03,-0.01,31.67
2025-09-22T21:22:33.606048,-8.97,-2.64,-2.02,0.04,0.03,-0.01,31.67
2025-09-22T21:22:33.707739,-8.98,-2.59,-1.99,0.04,0.03,-0.0,31.65
2025-09-22T21:22:33.811551,-8.99,-2.64,-1.98,0.04,0.03,0.0,31.65
2025-09-22T21:22:33.916737,-8.99,-2.58,-1.97,0.05,0.03,0.01,31.64
2025-09-22T21:22:34.018048,-8.96,-2.61,-1.97,0.05,0.03,0.03,31.64
2025-09-22T21:22:34.123638,-8.94,-2.65,-2.02,0.05,0.03,-0.0,31.62
2025-09-22T21:22:34.227920,-8.96,-2.62,-2.0,0.05,0.03,-0.01,31.63
2025-09-22T21:22:34.374640,-8.97,-2.63,-2.04,0.04,0.03,-0.01,31.63
2025-09-22T21:22:34.432896,-9.0,-2.61,-2.01,0.04,0.03,-0.01,31.62
2025-09-22T21:22:34.536217,-8.99,-2.59,-1.94,0.05,0.03,0.01,31.63
2025-09-22T21:22:34.636031,-8.97,-2.59,-1.98,0.05,0.03,0.02,31.63
2025-09-22T21:22:34.741099,-8.97,-2.61,-2.0,0.05,0.03,0.02,31.62
2025-09-22T21:22:34.842072,-8.93,-2.6,-2.04,0.05,0.03,0.01,31.6
2025-09-22T21:22:34.962776,-8.95,-2.58,-2.03,0.04,0.03,-0.01,31.59
2025-09-22T21:22:35.047438,-8.99,-2.59,-2.01,0.04,0.03,-0.02,31.58
2025-09-22T21:22:35.150406,-9.0,-2.56,-2.02,0.04,0.03,-0.0,31.58
2025-09-22T21:22:35.253497,-8.99,-2.59,-1.99,0.05,0.03,0.01,31.59
2025-09-22T21:22:35.356526,-9.0,-2.57,-2.03,0.06,0.03,0.02,31.6
2025-09-22T21:22:35.458608,-8.97,-2.64,-2.04,0.05,0.03,0.01,31.59
2025-09-22T21:22:35.564055,-8.95,-2.56,-2.0,0.04,0.03,-0.0,31.58
2025-09-22T21:22:35.665639,-8.97,-2.58,-2.02,0.04,0.04,-0.01,31.59
2025-09-22T21:22:35.768548,-8.99,-2.57,-2.02,0.04,0.03,-0.01,31.59
2025-09-22T21:22:35.872022,-9.01,-2.53,-2.0,0.05,0.03,0.01,31.58
2025-09-22T21:22:35.978905,-8.96,-2.56,-2.04,0.06,0.03,0.01,31.57
2025-09-22T21:22:36.080742,-8.97,-2.58,-2.01,0.06,0.03,0.01,31.58
2025-09-22T21:22:36.190500,-8.95,-2.59,-2.04,0.05,0.03,-0.0,31.58
2025-09-22T21:22:36.284543,-8.97,-2.55,-2.02,0.04,0.03,-0.01,31.55
2025-09-22T21:22:36.388555,-9.01,-2.52,-2.01,0.04,0.03,-0.01,31.58
2025-09-22T21:22:36.491491,-9.0,-2.54,-2.0,0.05,0.03,-0.0,31.55
2025-09-22T21:22:36.593576,-9.0,-2.54,-2.0,0.05,0.03,0.01,31.56
2025-09-22T21:22:36.695991,-8.98,-2.55,-2.03,0.06,0.03,0.01,31.56
2025-09-22T21:22:36.798548,-8.97,-2.54,-2.01,0.05,0.03,-0.0,31.55
2025-09-22T21:22:36.907395,-9.0,-2.53,-2.02,0.04,0.04,-0.0,31.55
2025-09-22T21:22:37.005524,-9.0,-2.56,-2.04,0.04,0.03,-0.01,31.55
2025-09-22T21:22:37.106564,-9.0,-2.55,-2.0,0.05,0.03,-0.0,31.53
2025-09-22T21:22:37.211018,-8.97,-2.53,-2.02,0.05,0.03,-0.0,31.53
2025-09-22T21:22:37.322936,-8.98,-2.53,-2.05,0.05,0.02,-0.02,31.55
2025-09-22T21:22:37.418049,-8.99,-2.51,-2.05,0.05,0.03,0.0,31.55
2025-09-22T21:22:37.521363,-9.0,-2.54,-2.04,0.04,0.04,0.02,31.53
2025-09-22T21:22:37.623004,-8.98,-2.55,-2.03,0.05,0.03,0.01,31.53
2025-09-22T21:22:37.730228,-8.98,-2.53,-2.03,0.05,0.03,0.0,31.53
2025-09-22T21:22:37.854173,-8.97,-2.54,-2.05,0.05,0.03,-0.02,31.53
2025-09-22T21:22:37.931870,-9.01,-2.48,-2.05,0.04,0.02,-0.02,31.52
2025-09-22T21:22:38.035096,-9.03,-2.46,-2.05,0.04,0.03,0.01,31.51
2025-09-22T21:22:38.139049,-9.0,-2.53,-2.03,0.05,0.03,0.02,31.5
2025-09-22T21:22:38.241002,-8.98,-2.54,-2.02,0.05,0.03,0.02,31.5
2025-09-22T21:22:38.343232,-8.97,-2.56,-2.06,0.05,0.03,-0.01,31.49
2025-09-22T21:22:38.446454,-8.99,-2.5,-2.07,0.04,0.03,-0.02,31.48
2025-09-22T21:22:38.549348,-9.03,-2.47,-2.06,0.04,0.03,-0.01,31.49
2025-09-22T21:22:38.652214,-9.01,-2.49,-2.06,0.05,0.03,0.01,31.5
2025-09-22T21:22:38.758613,-9.02,-2.48,-2.07,0.06,0.03,0.01,31.46
2025-09-22T21:22:38.858503,-8.99,-2.54,-2.05,0.05,0.03,0.01,31.48
2025-09-22T21:22:38.961517,-9.01,-2.51,-2.06,0.05,0.04,0.0,31.47
2025-09-22T21:22:39.063947,-9.01,-2.51,-2.03,0.04,0.03,0.0,31.49
2025-09-22T21:22:39.167388,-8.98,-2.49,-2.05,0.05,0.02,-0.01,31.47
2025-09-22T21:22:39.271482,-9.0,-2.49,-2.07,0.05,0.02,-0.02,31.47
2025-09-22T21:22:39.384017,-9.01,-2.47,-2.05,0.05,0.03,0.01,31.46
2025-09-22T21:22:39.476507,-9.03,-2.5,-2.07,0.05,0.03,0.01,31.47
